Experiment	Subject	Age	Gender	Num_Chinese	English	Trial	RT	Item	Key_T	Error	Duration	SyLen_factor	SegLen_factor	SegName	Syllables	SyStruct	Block	Decay_boxcox	HD	PND	NF	Freq
exp1	p15	18	F	3	8	94	0.89	ceng2	c@N2	0	611	sy1	seg3	3-Segment	Monosyllable	CVN	NA	NA	1	15	4.208	3.235
exp1	p31	18	F	1	7	4	0.807	ceng2	c@N2	0	611	sy1	seg3	3-Segment	Monosyllable	CVN	NA	NA	1	15	4.208	3.235
exp1	p08	23	F	2	7	126	0.652	ceng2	c@N2	0	611	sy1	seg3	3-Segment	Monosyllable	CVN	NA	NA	1	15	4.208	3.235
exp1	p28	21	M	2	8	34	0.69	ceng2	c@N2	0	611	sy1	seg3	3-Segment	Monosyllable	CVN	NA	NA	1	15	4.208	3.235
exp1	p33	20	F	2	1	81	0.887	ceng2	c@N2	0	611	sy1	seg3	3-Segment	Monosyllable	CVN	NA	NA	1	15	4.208	3.235
exp1	p23	19	M	3	6	41	0.826	ceng2	c@N2	0	611	sy1	seg3	3-Segment	Monosyllable	CVN	NA	NA	1	15	4.208	3.235
exp1	p05	19	M	2	7	25	0.812	ceng2	c@N2	0	611	sy1	seg3	3-Segment	Monosyllable	CVN	NA	NA	1	15	4.208	3.235
exp1	p18	21	F	3	6	83	0.782	ceng2	c@N2	0	611	sy1	seg3	3-Segment	Monosyllable	CVN	NA	NA	1	15	4.208	3.235
exp1	p13	19	F	1	8	81	1.129	ceng2	c@N2	0	611	sy1	seg3	3-Segment	Monosyllable	CVN	NA	NA	1	15	4.208	3.235
exp1	p09	24	F	1	5	126	0.823	ceng2	c@N2	0	611	sy1	seg3	3-Segment	Monosyllable	CVN	NA	NA	1	15	4.208	3.235
exp1	p11	22	F	3	7	4	0.741	ceng2	c@N2	0	611	sy1	seg3	3-Segment	Monosyllable	CVN	NA	NA	1	15	4.208	3.235
exp1	p34	28	M	2	5	121	1.194	ceng2	c@N2	0	611	sy1	seg3	3-Segment	Monosyllable	CVN	NA	NA	1	15	4.208	3.235
exp1	p30	35	M	3	6	102	0.987	ceng2	c@N2	0	611	sy1	seg3	3-Segment	Monosyllable	CVN	NA	NA	1	15	4.208	3.235
exp1	p24	19	M	1	7	109	0.598	ceng2	c@N2	0	611	sy1	seg3	3-Segment	Monosyllable	CVN	NA	NA	1	15	4.208	3.235
exp1	p25	23	M	2	8	41	0.817	ceng2	c@N2	0	611	sy1	seg3	3-Segment	Monosyllable	CVN	NA	NA	1	15	4.208	3.235
exp1	p29	20	F	3	8	25	1.015	ceng2	c@N2	0	611	sy1	seg3	3-Segment	Monosyllable	CVN	NA	NA	1	15	4.208	3.235
exp1	p16	19	F	1	8	121	0.772	ceng2	c@N2	0	611	sy1	seg3	3-Segment	Monosyllable	CVN	NA	NA	1	15	4.208	3.235
exp1	p01	27	F	2	6	127	0.914	ceng2	c@N2	0	611	sy1	seg3	3-Segment	Monosyllable	CVN	NA	NA	1	15	4.208	3.235
exp1	p20	23	F	1	5	83	0.905	ceng2	c@N2	0	611	sy1	seg3	3-Segment	Monosyllable	CVN	NA	NA	1	15	4.208	3.235
exp1	p03	25	F	2	9	127	0.606	ceng2	c@N2	0	611	sy1	seg3	3-Segment	Monosyllable	CVN	NA	NA	1	15	4.208	3.235
exp1	p32	24	F	3	6	126	0.933	ceng2	c@N2	0	611	sy1	seg3	3-Segment	Monosyllable	CVN	NA	NA	1	15	4.208	3.235
exp1	p14	24	F	2	6	94	0.254	ceng2	c@N2	0	611	sy1	seg3	3-Segment	Monosyllable	CVN	NA	NA	1	15	4.208	3.235
exp1	p10	20	F	2	8	4	0.684	ceng2	c@N2	0	611	sy1	seg3	3-Segment	Monosyllable	CVN	NA	NA	1	15	4.208	3.235
exp1	p19	20	M	2	6	50	0.948	ceng2	c@N2	0	611	sy1	seg3	3-Segment	Monosyllable	CVN	NA	NA	1	15	4.208	3.235
exp1	p07	24	F	3	6	102	0.718	ceng2	c@N2	0	611	sy1	seg3	3-Segment	Monosyllable	CVN	NA	NA	1	15	4.208	3.235
exp1	p26	20	M	3	5	109	0.533	ceng2	c@N2	0	611	sy1	seg3	3-Segment	Monosyllable	CVN	NA	NA	1	15	4.208	3.235
exp1	p21	22	F	1	8	50	0.746	ceng2	c@N2	0	611	sy1	seg3	3-Segment	Monosyllable	CVN	NA	NA	1	15	4.208	3.235
exp1	p06	22	F	6	8	102	0.716	ceng2	c@N2	0	611	sy1	seg3	3-Segment	Monosyllable	CVN	NA	NA	1	15	4.208	3.235
exp1	p04	19	M	2	5	25	0.709	ceng2	c@N2	0	611	sy1	seg3	3-Segment	Monosyllable	CVN	NA	NA	1	15	4.208	3.235
exp1	p02	19	M	2	7	127	0.747	ceng2	c@N2	0	611	sy1	seg3	3-Segment	Monosyllable	CVN	NA	NA	1	15	4.208	3.235
exp1	p12	21	F	2	8	81	0.664	ceng2	c@N2	0	611	sy1	seg3	3-Segment	Monosyllable	CVN	NA	NA	1	15	4.208	3.235
exp1	p27	29	M	2	9	34	0.952	ceng2	c@N2	cheng2	611	sy1	seg3	3-Segment	Monosyllable	CVN	NA	NA	1	15	4.208	3.235
exp1	p17	20	F	2	8	121	0.927	ceng2	c@N2	0	611	sy1	seg3	3-Segment	Monosyllable	CVN	NA	NA	1	15	4.208	3.235
exp3	p01	25	F	3	7	42	0.787	ceng2	c@N2	0	611	sy1	seg3	3-Segment	Monosyllable	CVN	b2	NA	1	15	4.208	3.235
exp3	p02	24	F	1	7	86	0.855	ceng2	c@N2	0	611	sy1	seg3	3-Segment	Monosyllable	CVN	b3	NA	1	15	4.208	3.235
exp3	p03	34	M	2	7	49	0.981	ceng2	c@N2	0	611	sy1	seg3	3-Segment	Monosyllable	CVN	b2	NA	1	15	4.208	3.235
exp3	p04	28	F	2	7	12	0.917	ceng2	c@N2	0	611	sy1	seg3	3-Segment	Monosyllable	CVN	b1	NA	1	15	4.208	3.235
exp3	p05	28	F	3	6	83	0.901	ceng2	c@N2	0	611	sy1	seg3	3-Segment	Monosyllable	CVN	b3	NA	1	15	4.208	3.235
exp3	p06	27	M	2	6	33	0.867	ceng2	c@N2	0	611	sy1	seg3	3-Segment	Monosyllable	CVN	b1	NA	1	15	4.208	3.235
exp3	p07	26	M	1	6	113	0.878	ceng2	c@N2	0	611	sy1	seg3	3-Segment	Monosyllable	CVN	b4	NA	1	15	4.208	3.235
exp3	p08	24	F	1	6	81	0.703	ceng2	c@N2	0	611	sy1	seg3	3-Segment	Monosyllable	CVN	b3	NA	1	15	4.208	3.235
exp3	p09	25	F	1	7	9	0.725	ceng2	c@N2	0	611	sy1	seg3	3-Segment	Monosyllable	CVN	b1	NA	1	15	4.208	3.235
exp3	p10	21	F	2	7	14	0.802	ceng2	c@N2	0	611	sy1	seg3	3-Segment	Monosyllable	CVN	b1	NA	1	15	4.208	3.235
exp3	p11	33	M	1	5	6	0.847	ceng2	c@N2	0	611	sy1	seg3	3-Segment	Monosyllable	CVN	b1	NA	1	15	4.208	3.235
exp3	p12	28	F	2	6	86	0.537	ceng2	c@N2	0	611	sy1	seg3	3-Segment	Monosyllable	CVN	b3	NA	1	15	4.208	3.235
exp3	p13	28	M	1	6	85	0.755	ceng2	c@N2	0	611	sy1	seg3	3-Segment	Monosyllable	CVN	b3	NA	1	15	4.208	3.235
exp3	p14	28	F	2	7	48	0.869	ceng2	c@N2	0	611	sy1	seg3	3-Segment	Monosyllable	CVN	b2	NA	1	15	4.208	3.235
exp3	p15	24	F	3	7	119	0.7	ceng2	c@N2	0	611	sy1	seg3	3-Segment	Monosyllable	CVN	b4	NA	1	15	4.208	3.235
exp3	p16	29	F	2	6	105	0.702	ceng2	c@N2	0	611	sy1	seg3	3-Segment	Monosyllable	CVN	b3	NA	1	15	4.208	3.235
exp3	p17	27	M	1	6	77	0.779	ceng2	c@N2	0	611	sy1	seg3	3-Segment	Monosyllable	CVN	b3	NA	1	15	4.208	3.235
exp3	p18	25	F	3	7	81	0.865	ceng2	c@N2	0	611	sy1	seg3	3-Segment	Monosyllable	CVN	b3	NA	1	15	4.208	3.235
exp3	p19	27	F	2	7	117	0.929	ceng2	c@N2	0	611	sy1	seg3	3-Segment	Monosyllable	CVN	b4	NA	1	15	4.208	3.235
exp3	p20	26	F	2	7	86	0.843	ceng2	c@N2	0	611	sy1	seg3	3-Segment	Monosyllable	CVN	b3	NA	1	15	4.208	3.235
exp3	p21	26	F	2	7	78	0.939	ceng2	c@N2	0	611	sy1	seg3	3-Segment	Monosyllable	CVN	b3	NA	1	15	4.208	3.235
exp3	p22	26	M	1	7	14	1.047	ceng2	c@N2	0	611	sy1	seg3	3-Segment	Monosyllable	CVN	b1	NA	1	15	4.208	3.235
exp3	p23	23	F	3	7	85	0.957	ceng2	c@N2	0	611	sy1	seg3	3-Segment	Monosyllable	CVN	b3	NA	1	15	4.208	3.235
exp3	p24	23	F	1	7	48	0.927	ceng2	c@N2	0	611	sy1	seg3	3-Segment	Monosyllable	CVN	b2	NA	1	15	4.208	3.235
exp3	p25	19	M	2	9	47	1.012	ceng2	c@N2	0	611	sy1	seg3	3-Segment	Monosyllable	CVN	b2	NA	1	15	4.208	3.235
exp3	p26	19	F	2	7	141	0.965	ceng2	c@N2	0	611	sy1	seg3	3-Segment	Monosyllable	CVN	b4	NA	1	15	4.208	3.235
exp3	p27	20	F	3	7	77	0.793	ceng2	c@N2	0	611	sy1	seg3	3-Segment	Monosyllable	CVN	b3	NA	1	15	4.208	3.235
exp3	p29	30	F	2	7	9	0.853	ceng2	c@N2	0	611	sy1	seg3	3-Segment	Monosyllable	CVN	b1	NA	1	15	4.208	3.235
exp3	p30	23	F	2	7	9	0.888	ceng2	c@N2	0	611	sy1	seg3	3-Segment	Monosyllable	CVN	b1	NA	1	15	4.208	3.235
exp3	p31	38	F	1	8	50	0.73	ceng2	c@N2	0	611	sy1	seg3	3-Segment	Monosyllable	CVN	b2	NA	1	15	4.208	3.235
exp3	p32	19	F	1	7	114	0.886	ceng2	c@N2	0	611	sy1	seg3	3-Segment	Monosyllable	CVN	b4	NA	1	15	4.208	3.235
exp3	p33	19	F	2	8	50	0.789	ceng2	c@N2	0	611	sy1	seg3	3-Segment	Monosyllable	CVN	b2	NA	1	15	4.208	3.235
exp3	p34	27	F	2	7	13	0.803	ceng2	c@N2	0	611	sy1	seg3	3-Segment	Monosyllable	CVN	b1	NA	1	15	4.208	3.235
exp3	p35	32	F	3	8	12	0.8	ceng2	c@N2	0	611	sy1	seg3	3-Segment	Monosyllable	CVN	b1	NA	1	15	4.208	3.235
exp3	p36	24	M	3	7	119	0.633	ceng2	c@N2	0	611	sy1	seg3	3-Segment	Monosyllable	CVN	b4	NA	1	15	4.208	3.235
exp2	p30	23	F	2	8	104	0.672	ceng2	c@N2	0	611	sy1	seg3	3-Segment	Monosyllable	CVN	b3	0.99649	1	15	4.208	3.235
exp2	p47	23	F	1	7	51	0.983	ceng2	c@N2	0	611	sy1	seg3	3-Segment	Monosyllable	CVN	b2	0.99744	1	15	4.208	3.235
exp2	p24	21	M	2	6	14	1.064	ceng2	c@N2	0	611	sy1	seg3	3-Segment	Monosyllable	CVN	b1	NA	1	15	4.208	3.235
exp2	p25	23	M	2	6	91	0.88	ceng2	c@N2	0	611	sy1	seg3	3-Segment	Monosyllable	CVN	b3	0.99668	1	15	4.208	3.235
exp2	p02	26	M	3	8	137	0.913	ceng2	c@N2	0	611	sy1	seg3	3-Segment	Monosyllable	CVN	b4	0.99631	1	15	4.208	3.235
exp2	p41	26	F	1	6	60	1.366	ceng2	c@N2	0	611	sy1	seg3	3-Segment	Monosyllable	CVN	b2	0.99794	1	15	4.208	3.235
exp2	p28	23	F	1	8	91	0.949	ceng2	c@N2	0	611	sy1	seg3	3-Segment	Monosyllable	CVN	b3	0.99663	1	15	4.208	3.235
exp2	p32	26	F	2	5	131	0.854	ceng2	c@N2	0	611	sy1	seg3	3-Segment	Monosyllable	CVN	b4	0.99703	1	15	4.208	3.235
exp2	p16	20	F	3	7	136	0.843	ceng2	c@N2	0	611	sy1	seg3	3-Segment	Monosyllable	CVN	b4	0.99748	1	15	4.208	3.235
exp2	p04	24	F	1	5	137	0.888	ceng2	c@N2	0	611	sy1	seg3	3-Segment	Monosyllable	CVN	b4	0.99642	1	15	4.208	3.235
exp2	p29	20	M	4	6	104	0.786	ceng2	c@N2	0	611	sy1	seg3	3-Segment	Monosyllable	CVN	b3	0.99674	1	15	4.208	3.235
exp2	p43	26	M	2	7	60	1.255	ceng2	c@N2	0	611	sy1	seg3	3-Segment	Monosyllable	CVN	b2	0.99754	1	15	4.208	3.235
exp2	p20	23	M	2	7	112	0.866	ceng2	c@N2	0	611	sy1	seg3	3-Segment	Monosyllable	CVN	b3	0.99779	1	15	4.208	3.235
exp2	p19	26	F	3	8	136	0.797	ceng2	c@N2	0	611	sy1	seg3	3-Segment	Monosyllable	CVN	b4	0.99735	1	15	4.208	3.235
exp2	p27	23	F	1	8	91	0.912	ceng2	c@N2	0	611	sy1	seg3	3-Segment	Monosyllable	CVN	b3	0.99694	1	15	4.208	3.235
exp2	p09	19	M	2	7	35	0.82	ceng2	c@N2	0	611	sy1	seg3	3-Segment	Monosyllable	CVN	b1	NA	1	15	4.208	3.235
exp2	p38	24	F	1	6	93	0.879	ceng2	c@N2	0	611	sy1	seg3	3-Segment	Monosyllable	CVN	b3	0.99712	1	15	4.208	3.235
exp2	p23	23	F	3	8	14	0.837	ceng2	c@N2	0	611	sy1	seg3	3-Segment	Monosyllable	CVN	b1	NA	1	15	4.208	3.235
exp2	p17	23	M	3	5	136	0.907	ceng2	c@N2	0	611	sy1	seg3	3-Segment	Monosyllable	CVN	b4	0.99743	1	15	4.208	3.235
exp2	p14	38	M	2	5	112	0.838	ceng2	c@N2	0	611	sy1	seg3	3-Segment	Monosyllable	CVN	b3	0.99738	1	15	4.208	3.235
exp2	p40	22	F	2	7	93	0.915	ceng2	c@N2	0	611	sy1	seg3	3-Segment	Monosyllable	CVN	b3	0.99698	1	15	4.208	3.235
exp2	p21	21	F	3	5	14	0.867	ceng2	c@N2	0	611	sy1	seg3	3-Segment	Monosyllable	CVN	b1	NA	1	15	4.208	3.235
exp2	p05	23	F	3	7	137	0.727	ceng2	c@N2	0	611	sy1	seg3	3-Segment	Monosyllable	CVN	b4	0.99636	1	15	4.208	3.235
exp2	p10	28	M	2	7	112	0.935	ceng2	c@N2	0	611	sy1	seg3	3-Segment	Monosyllable	CVN	b3	0.99685	1	15	4.208	3.235
exp2	p22	22	F	2	7	14	0.903	ceng2	c@N2	0	611	sy1	seg3	3-Segment	Monosyllable	CVN	b1	NA	1	15	4.208	3.235
exp2	p18	19	F	2	6	136	1.213	ceng2	c@N2	0	611	sy1	seg3	3-Segment	Monosyllable	CVN	b4	NA	1	15	4.208	3.235
exp2	p13	28	M	2	6	112	0.818	ceng2	c@N2	0	611	sy1	seg3	3-Segment	Monosyllable	CVN	b3	0.99767	1	15	4.208	3.235
exp2	p07	26	F	3	7	35	1.028	ceng2	c@N2	0	611	sy1	seg3	3-Segment	Monosyllable	CVN	b1	NA	1	15	4.208	3.235
exp2	p46	29	F	2	7	51	1.092	ceng2	c@N2	0	611	sy1	seg3	3-Segment	Monosyllable	CVN	b2	0.9981	1	15	4.208	3.235
exp2	p31	38	F	2	6	131	0.723	ceng2	c@N2	0	611	sy1	seg3	3-Segment	Monosyllable	CVN	b4	0.997	1	15	4.208	3.235
exp2	p33	26	F	1	6	131	0.807	ceng2	c@N2	0	611	sy1	seg3	3-Segment	Monosyllable	CVN	b4	0.9967	1	15	4.208	3.235
exp2	p34	26	M	2	6	131	0.856	ceng2	c@N2	0	611	sy1	seg3	3-Segment	Monosyllable	CVN	b4	0.99798	1	15	4.208	3.235
exp2	p45	23	F	2	7	51	0.854	ceng2	c@N2	0	611	sy1	seg3	3-Segment	Monosyllable	CVN	b2	0.99762	1	15	4.208	3.235
exp2	p42	20	F	1	7	60	0.862	ceng2	c@N2	0	611	sy1	seg3	3-Segment	Monosyllable	CVN	b2	0.99804	1	15	4.208	3.235
exp2	p01	19	M	2	7	137	0.837	ceng2	c@N2	0	611	sy1	seg3	3-Segment	Monosyllable	CVN	b4	0.99634	1	15	4.208	3.235
exp2	p06	21	F	3	8	35	1.085	ceng2	c@N2	0	611	sy1	seg3	3-Segment	Monosyllable	CVN	b1	NA	1	15	4.208	3.235
exp2	p08	19	M	3	7	35	0.815	ceng2	c@N2	0	611	sy1	seg3	3-Segment	Monosyllable	CVN	b1	NA	1	15	4.208	3.235
exp2	p37	20	F	3	8	93	0.803	ceng2	c@N2	0	611	sy1	seg3	3-Segment	Monosyllable	CVN	b3	0.99726	1	15	4.208	3.235
exp2	p39	22	M	2	8	93	0.886	ceng2	c@N2	cheng2	611	sy1	seg3	3-Segment	Monosyllable	CVN	b3	0.99792	1	15	4.208	3.235
exp2	p03	28	F	1	7	137	1.002	ceng2	c@N2	0	611	sy1	seg3	3-Segment	Monosyllable	CVN	b4	0.99639	1	15	4.208	3.235
exp2	p15	23	F	1	7	136	1.079	ceng2	c@N2	0	611	sy1	seg3	3-Segment	Monosyllable	CVN	b4	0.99752	1	15	4.208	3.235
exp2	p26	24	F	1	7	91	0.811	ceng2	c@N2	0	611	sy1	seg3	3-Segment	Monosyllable	CVN	b3	0.99676	1	15	4.208	3.235
exp2	p36	31	M	2	8	104	1.113	ceng2	c@N2	0	611	sy1	seg3	3-Segment	Monosyllable	CVN	b3	0.99766	1	15	4.208	3.235
exp2	p11	25	M	3	8	35	0.904	ceng2	c@N2	0	611	sy1	seg3	3-Segment	Monosyllable	CVN	b1	NA	1	15	4.208	3.235
exp2	p35	23	F	2	6	104	0.784	ceng2	c@N2	0	611	sy1	seg3	3-Segment	Monosyllable	CVN	b3	0.99802	1	15	4.208	3.235
exp2	p44	23	F	2	8	60	0.882	ceng2	c@N2	0	611	sy1	seg3	3-Segment	Monosyllable	CVN	b2	0.99746	1	15	4.208	3.235
exp2	p12	26	M	2	6	112	0.849	ceng2	c@N2	0	611	sy1	seg3	3-Segment	Monosyllable	CVN	b3	0.99759	1	15	4.208	3.235
exp2	p40	22	F	2	7	67	0.834	cang2	caN2	0	618	sy1	seg3	3-Segment	Monosyllable	CVN	b2	0.99806	1	18	3.827	3.595
exp3	p22	26	M	1	7	21	0.972	cang2	caN2	0	618	sy1	seg3	3-Segment	Monosyllable	CVN	b1	NA	1	18	3.827	3.595
exp3	p23	23	F	3	7	87	0.987	cang2	caN2	0	618	sy1	seg3	3-Segment	Monosyllable	CVN	b3	NA	1	18	3.827	3.595
exp3	p24	23	F	1	7	45	0.902	cang2	caN2	0	618	sy1	seg3	3-Segment	Monosyllable	CVN	b2	NA	1	18	3.827	3.595
exp3	p27	20	F	3	7	105	0.756	cang2	caN2	0	618	sy1	seg3	3-Segment	Monosyllable	CVN	b3	NA	1	18	3.827	3.595
exp3	p29	30	F	2	7	30	0.867	cang2	caN2	0	618	sy1	seg3	3-Segment	Monosyllable	CVN	b1	NA	1	18	3.827	3.595
exp3	p30	23	F	2	7	4	0.911	cang2	caN2	0	618	sy1	seg3	3-Segment	Monosyllable	CVN	b1	NA	1	18	3.827	3.595
exp3	p31	38	F	1	8	63	0.637	cang2	caN2	0	618	sy1	seg3	3-Segment	Monosyllable	CVN	b2	NA	1	18	3.827	3.595
exp3	p32	19	F	1	7	141	0.814	cang2	caN2	0	618	sy1	seg3	3-Segment	Monosyllable	CVN	b4	NA	1	18	3.827	3.595
exp3	p33	19	F	2	8	57	0.842	cang2	caN2	0	618	sy1	seg3	3-Segment	Monosyllable	CVN	b2	NA	1	18	3.827	3.595
exp3	p34	27	F	2	7	15	0.812	cang2	caN2	0	618	sy1	seg3	3-Segment	Monosyllable	CVN	b1	NA	1	18	3.827	3.595
exp3	p35	32	F	3	8	9	0.834	cang2	caN2	0	618	sy1	seg3	3-Segment	Monosyllable	CVN	b1	NA	1	18	3.827	3.595
exp3	p36	24	M	3	7	114	0.734	cang2	caN2	0	618	sy1	seg3	3-Segment	Monosyllable	CVN	b4	NA	1	18	3.827	3.595
exp2	p06	21	F	3	8	121	1.008	cang2	caN2	0	618	sy1	seg3	3-Segment	Monosyllable	CVN	b4	0.99678	1	18	3.827	3.595
exp2	p21	21	F	3	5	127	0.833	cang2	caN2	0	618	sy1	seg3	3-Segment	Monosyllable	CVN	b4	0.99687	1	18	3.827	3.595
exp2	p16	20	F	3	7	77	1.049	cang2	caN2	0	618	sy1	seg3	3-Segment	Monosyllable	CVN	b2	0.99775	1	18	3.827	3.595
exp2	p31	38	F	2	6	29	0.762	cang2	caN2	0	618	sy1	seg3	3-Segment	Monosyllable	CVN	b1	NA	1	18	3.827	3.595
exp2	p44	23	F	2	8	47	1.205	cang2	caN2	0	618	sy1	seg3	3-Segment	Monosyllable	CVN	b2	0.99746	1	18	3.827	3.595
exp2	p46	29	F	2	7	59	1.394	cang2	caN2	0	618	sy1	seg3	3-Segment	Monosyllable	CVN	b2	0.9981	1	18	3.827	3.595
exp2	p39	22	M	2	8	67	0.91	cang2	caN2	chang2	618	sy1	seg3	3-Segment	Monosyllable	CVN	b2	0.99814	1	18	3.827	3.595
exp2	p30	23	F	2	8	13	0.979	cang2	caN2	0	618	sy1	seg3	3-Segment	Monosyllable	CVN	b1	NA	1	18	3.827	3.595
exp2	p04	24	F	1	5	45	0.823	cang2	caN2	0	618	sy1	seg3	3-Segment	Monosyllable	CVN	b1	NA	1	18	3.827	3.595
exp2	p47	23	F	1	7	59	1.038	cang2	caN2	0	618	sy1	seg3	3-Segment	Monosyllable	CVN	b2	0.99744	1	18	3.827	3.595
exp2	p19	26	F	3	8	77	0.81	cang2	caN2	0	618	sy1	seg3	3-Segment	Monosyllable	CVN	b2	0.99774	1	18	3.827	3.595
exp2	p11	25	M	3	8	121	0.808	cang2	caN2	0	618	sy1	seg3	3-Segment	Monosyllable	CVN	b4	0.99772	1	18	3.827	3.595
exp2	p13	28	M	2	6	37	0.924	cang2	caN2	0	618	sy1	seg3	3-Segment	Monosyllable	CVN	b1	NA	1	18	3.827	3.595
exp2	p14	38	M	2	5	37	0.894	cang2	caN2	0	618	sy1	seg3	3-Segment	Monosyllable	CVN	b1	NA	1	18	3.827	3.595
exp2	p34	26	M	2	6	29	1.065	cang2	caN2	0	618	sy1	seg3	3-Segment	Monosyllable	CVN	b1	NA	1	18	3.827	3.595
exp2	p27	23	F	1	8	87	1.233	cang2	caN2	ceng2	618	sy1	seg3	3-Segment	Monosyllable	CVN	b3	0.99694	1	18	3.827	3.595
exp2	p43	26	M	2	7	47	0.855	cang2	caN2	0	618	sy1	seg3	3-Segment	Monosyllable	CVN	b2	0.99754	1	18	3.827	3.595
exp2	p29	20	M	4	6	13	0.864	cang2	caN2	0	618	sy1	seg3	3-Segment	Monosyllable	CVN	b1	NA	1	18	3.827	3.595
exp2	p15	23	F	1	7	77	0.975	cang2	caN2	0	618	sy1	seg3	3-Segment	Monosyllable	CVN	b2	0.99783	1	18	3.827	3.595
exp2	p17	23	M	3	5	77	0.912	cang2	caN2	0	618	sy1	seg3	3-Segment	Monosyllable	CVN	b2	0.99809	1	18	3.827	3.595
exp2	p05	23	F	3	7	45	0.789	cang2	caN2	0	618	sy1	seg3	3-Segment	Monosyllable	CVN	b1	NA	1	18	3.827	3.595
exp2	p18	19	F	2	6	77	1.183	cang2	caN2	0	618	sy1	seg3	3-Segment	Monosyllable	CVN	b2	NA	1	18	3.827	3.595
exp2	p33	26	F	1	6	29	0.875	cang2	caN2	0	618	sy1	seg3	3-Segment	Monosyllable	CVN	b1	NA	1	18	3.827	3.595
exp2	p03	28	F	1	7	45	1.103	cang2	caN2	0	618	sy1	seg3	3-Segment	Monosyllable	CVN	b1	NA	1	18	3.827	3.595
exp2	p38	24	F	1	6	67	0.837	cang2	caN2	0	618	sy1	seg3	3-Segment	Monosyllable	CVN	b2	0.99795	1	18	3.827	3.595
exp2	p42	20	F	1	7	47	1.031	cang2	caN2	0	618	sy1	seg3	3-Segment	Monosyllable	CVN	b2	0.99804	1	18	3.827	3.595
exp2	p22	22	F	2	7	127	1.162	cang2	caN2	ceng3	618	sy1	seg3	3-Segment	Monosyllable	CVN	b4	0.9971	1	18	3.827	3.595
exp2	p09	19	M	2	7	121	0.696	cang2	caN2	0	618	sy1	seg3	3-Segment	Monosyllable	CVN	b4	0.99736	1	18	3.827	3.595
exp2	p20	23	M	2	7	37	1.151	cang2	caN2	0	618	sy1	seg3	3-Segment	Monosyllable	CVN	b1	NA	1	18	3.827	3.595
exp2	p24	21	M	2	6	127	0.998	cang2	caN2	0	618	sy1	seg3	3-Segment	Monosyllable	CVN	b4	0.99713	1	18	3.827	3.595
exp2	p28	23	F	1	8	87	0.995	cang2	caN2	0	618	sy1	seg3	3-Segment	Monosyllable	CVN	b3	0.99663	1	18	3.827	3.595
exp2	p41	26	F	1	6	47	1.344	cang2	caN2	0	618	sy1	seg3	3-Segment	Monosyllable	CVN	b2	0.99794	1	18	3.827	3.595
exp2	p10	28	M	2	7	37	0.976	cang2	caN2	0	618	sy1	seg3	3-Segment	Monosyllable	CVN	b1	NA	1	18	3.827	3.595
exp2	p12	26	M	2	6	37	0.878	cang2	caN2	0	618	sy1	seg3	3-Segment	Monosyllable	CVN	b1	NA	1	18	3.827	3.595
exp2	p07	26	F	3	7	121	1.125	cang2	caN2	0	618	sy1	seg3	3-Segment	Monosyllable	CVN	b4	0.9979	1	18	3.827	3.595
exp2	p45	23	F	2	7	59	1.031	cang2	caN2	0	618	sy1	seg3	3-Segment	Monosyllable	CVN	b2	0.99762	1	18	3.827	3.595
exp2	p08	19	M	3	7	121	0.804	cang2	caN2	0	618	sy1	seg3	3-Segment	Monosyllable	CVN	b4	0.99803	1	18	3.827	3.595
exp2	p26	24	F	1	7	87	0.833	cang2	caN2	0	618	sy1	seg3	3-Segment	Monosyllable	CVN	b3	0.99676	1	18	3.827	3.595
exp2	p23	23	F	3	8	127	0.721	cang2	caN2	0	618	sy1	seg3	3-Segment	Monosyllable	CVN	b4	0.99717	1	18	3.827	3.595
exp2	p25	23	M	2	6	87	0.801	cang2	caN2	0	618	sy1	seg3	3-Segment	Monosyllable	CVN	b3	0.99668	1	18	3.827	3.595
exp1	p19	20	M	2	6	37	0.82	cang2	caN2	0	618	sy1	seg3	3-Segment	Monosyllable	CVN	NA	NA	1	18	3.827	3.595
exp1	p33	20	F	2	1	77	0.942	cang2	caN2	0	618	sy1	seg3	3-Segment	Monosyllable	CVN	NA	NA	1	18	3.827	3.595
exp1	p10	20	F	2	8	117	0.781	cang2	caN2	0	618	sy1	seg3	3-Segment	Monosyllable	CVN	NA	NA	1	18	3.827	3.595
exp1	p12	21	F	2	8	77	0.697	cang2	caN2	0	618	sy1	seg3	3-Segment	Monosyllable	CVN	NA	NA	1	18	3.827	3.595
exp1	p21	22	F	1	8	37	0.635	cang2	caN2	0	618	sy1	seg3	3-Segment	Monosyllable	CVN	NA	NA	1	18	3.827	3.595
exp1	p30	35	M	3	6	27	0.929	cang2	caN2	0	618	sy1	seg3	3-Segment	Monosyllable	CVN	NA	NA	1	18	3.827	3.595
exp1	p20	23	F	1	5	57	0.907	cang2	caN2	0	618	sy1	seg3	3-Segment	Monosyllable	CVN	NA	NA	1	18	3.827	3.595
exp1	p06	22	F	6	8	27	0.796	cang2	caN2	0	618	sy1	seg3	3-Segment	Monosyllable	CVN	NA	NA	1	18	3.827	3.595
exp1	p32	24	F	3	6	67	0.905	cang2	caN2	0	618	sy1	seg3	3-Segment	Monosyllable	CVN	NA	NA	1	18	3.827	3.595
exp1	p27	29	M	2	9	92	0.905	cang2	caN2	0	618	sy1	seg3	3-Segment	Monosyllable	CVN	NA	NA	1	18	3.827	3.595
exp1	p02	19	M	2	7	35	0.903	cang2	caN2	0	618	sy1	seg3	3-Segment	Monosyllable	CVN	NA	NA	1	18	3.827	3.595
exp1	p31	18	F	1	7	117	0.648	cang2	caN2	0	618	sy1	seg3	3-Segment	Monosyllable	CVN	NA	NA	1	18	3.827	3.595
exp1	p29	20	F	3	8	111	0.762	cang2	caN2	0	618	sy1	seg3	3-Segment	Monosyllable	CVN	NA	NA	1	18	3.827	3.595
exp1	p13	19	F	1	8	77	0.922	cang2	caN2	ceng2	618	sy1	seg3	3-Segment	Monosyllable	CVN	NA	NA	1	18	3.827	3.595
exp1	p28	21	M	2	8	92	0.771	cang2	caN2	0	618	sy1	seg3	3-Segment	Monosyllable	CVN	NA	NA	1	18	3.827	3.595
exp1	p26	20	M	3	5	128	0.572	cang2	caN2	0	618	sy1	seg3	3-Segment	Monosyllable	CVN	NA	NA	1	18	3.827	3.595
exp1	p09	24	F	1	5	67	0.766	cang2	caN2	0	618	sy1	seg3	3-Segment	Monosyllable	CVN	NA	NA	1	18	3.827	3.595
exp1	p03	25	F	2	9	35	0.633	cang2	caN2	ceng2	618	sy1	seg3	3-Segment	Monosyllable	CVN	NA	NA	1	18	3.827	3.595
exp1	p14	24	F	2	6	3	0.765	cang2	caN2	0	618	sy1	seg3	3-Segment	Monosyllable	CVN	NA	NA	1	18	3.827	3.595
exp1	p08	23	F	2	7	67	0.796	cang2	caN2	0	618	sy1	seg3	3-Segment	Monosyllable	CVN	NA	NA	1	18	3.827	3.595
exp1	p05	19	M	2	7	111	0.749	cang2	caN2	0	618	sy1	seg3	3-Segment	Monosyllable	CVN	NA	NA	1	18	3.827	3.595
exp1	p34	28	M	2	5	19	1.5	cang2	caN2	0	618	sy1	seg3	3-Segment	Monosyllable	CVN	NA	NA	1	18	3.827	3.595
exp1	p11	22	F	3	7	117	0.8	cang2	caN2	0	618	sy1	seg3	3-Segment	Monosyllable	CVN	NA	NA	1	18	3.827	3.595
exp1	p18	21	F	3	6	57	0.874	cang2	caN2	0	618	sy1	seg3	3-Segment	Monosyllable	CVN	NA	NA	1	18	3.827	3.595
exp1	p25	23	M	2	8	49	0.835	cang2	caN2	0	618	sy1	seg3	3-Segment	Monosyllable	CVN	NA	NA	1	18	3.827	3.595
exp1	p07	24	F	3	6	27	0.829	cang2	caN2	chang2	618	sy1	seg3	3-Segment	Monosyllable	CVN	NA	NA	1	18	3.827	3.595
exp1	p15	18	F	3	8	3	1.015	cang2	caN2	0	618	sy1	seg3	3-Segment	Monosyllable	CVN	NA	NA	1	18	3.827	3.595
exp1	p24	19	M	1	7	128	0.682	cang2	caN2	0	618	sy1	seg3	3-Segment	Monosyllable	CVN	NA	NA	1	18	3.827	3.595
exp1	p23	19	M	3	6	49	0.886	cang2	caN2	0	618	sy1	seg3	3-Segment	Monosyllable	CVN	NA	NA	1	18	3.827	3.595
exp1	p01	27	F	2	6	35	1.004	cang2	caN2	0	618	sy1	seg3	3-Segment	Monosyllable	CVN	NA	NA	1	18	3.827	3.595
exp1	p16	19	F	1	8	19	0.831	cang2	caN2	0	618	sy1	seg3	3-Segment	Monosyllable	CVN	NA	NA	1	18	3.827	3.595
exp1	p17	20	F	2	8	19	1.079	cang2	caN2	0	618	sy1	seg3	3-Segment	Monosyllable	CVN	NA	NA	1	18	3.827	3.595
exp1	p04	19	M	2	5	111	0.591	cang2	caN2	0	618	sy1	seg3	3-Segment	Monosyllable	CVN	NA	NA	1	18	3.827	3.595
exp3	p26	19	F	2	7	139	1.029	cang2	caN2	cao2	618	sy1	seg3	3-Segment	Monosyllable	CVN	b4	NA	1	18	3.827	3.595
exp3	p25	19	M	2	9	42	0.79	cang2	caN2	ceng2	618	sy1	seg3	3-Segment	Monosyllable	CVN	b2	NA	1	18	3.827	3.595
exp3	p01	25	F	3	7	69	0.734	cang2	caN2	0	618	sy1	seg3	3-Segment	Monosyllable	CVN	b2	NA	1	18	3.827	3.595
exp3	p02	24	F	1	7	93	0.853	cang2	caN2	0	618	sy1	seg3	3-Segment	Monosyllable	CVN	b3	NA	1	18	3.827	3.595
exp3	p03	34	M	2	7	51	0.956	cang2	caN2	0	618	sy1	seg3	3-Segment	Monosyllable	CVN	b2	NA	1	18	3.827	3.595
exp3	p04	28	F	2	7	9	0.975	cang2	caN2	0	618	sy1	seg3	3-Segment	Monosyllable	CVN	b1	NA	1	18	3.827	3.595
exp3	p05	28	F	3	6	78	0.89	cang2	caN2	0	618	sy1	seg3	3-Segment	Monosyllable	CVN	b3	NA	1	18	3.827	3.595
exp3	p06	27	M	2	6	31	0.838	cang2	caN2	0	618	sy1	seg3	3-Segment	Monosyllable	CVN	b1	NA	1	18	3.827	3.595
exp3	p07	26	M	1	6	141	1.005	cang2	caN2	0	618	sy1	seg3	3-Segment	Monosyllable	CVN	b4	NA	1	18	3.827	3.595
exp3	p08	24	F	1	6	102	0.662	cang2	caN2	0	618	sy1	seg3	3-Segment	Monosyllable	CVN	b3	NA	1	18	3.827	3.595
exp3	p09	25	F	1	7	4	0.785	cang2	caN2	0	618	sy1	seg3	3-Segment	Monosyllable	CVN	b1	NA	1	18	3.827	3.595
exp3	p10	21	F	2	7	27	0.808	cang2	caN2	0	618	sy1	seg3	3-Segment	Monosyllable	CVN	b1	NA	1	18	3.827	3.595
exp3	p11	33	M	1	5	33	0.905	cang2	caN2	0	618	sy1	seg3	3-Segment	Monosyllable	CVN	b1	NA	1	18	3.827	3.595
exp3	p12	28	F	2	6	93	0.574	cang2	caN2	0	618	sy1	seg3	3-Segment	Monosyllable	CVN	b3	NA	1	18	3.827	3.595
exp3	p13	28	M	1	6	87	0.76	cang2	caN2	0	618	sy1	seg3	3-Segment	Monosyllable	CVN	b3	NA	1	18	3.827	3.595
exp3	p14	28	F	2	7	45	0.869	cang2	caN2	0	618	sy1	seg3	3-Segment	Monosyllable	CVN	b2	NA	1	18	3.827	3.595
exp3	p15	24	F	3	7	114	0.783	cang2	caN2	0	618	sy1	seg3	3-Segment	Monosyllable	CVN	b4	NA	1	18	3.827	3.595
exp3	p16	29	F	2	6	103	0.733	cang2	caN2	0	618	sy1	seg3	3-Segment	Monosyllable	CVN	b3	NA	1	18	3.827	3.595
exp3	p17	27	M	1	6	105	0.809	cang2	caN2	0	618	sy1	seg3	3-Segment	Monosyllable	CVN	b3	NA	1	18	3.827	3.595
exp3	p18	25	F	3	7	102	0.826	cang2	caN2	0	618	sy1	seg3	3-Segment	Monosyllable	CVN	b3	NA	1	18	3.827	3.595
exp3	p19	27	F	2	7	112	0.922	cang2	caN2	0	618	sy1	seg3	3-Segment	Monosyllable	CVN	b4	NA	1	18	3.827	3.595
exp3	p20	26	F	2	7	99	0.865	cang2	caN2	0	618	sy1	seg3	3-Segment	Monosyllable	CVN	b3	NA	1	18	3.827	3.595
exp3	p21	26	F	2	7	105	0.848	cang2	caN2	0	618	sy1	seg3	3-Segment	Monosyllable	CVN	b3	NA	1	18	3.827	3.595
exp2	p02	26	M	3	8	45	0.907	cang2	caN2	0	618	sy1	seg3	3-Segment	Monosyllable	CVN	b1	NA	1	18	3.827	3.595
exp2	p35	23	F	2	6	13	0.909	cang2	caN2	0	618	sy1	seg3	3-Segment	Monosyllable	CVN	b1	NA	1	18	3.827	3.595
exp2	p32	26	F	2	5	29	0.841	cang2	caN2	0	618	sy1	seg3	3-Segment	Monosyllable	CVN	b1	NA	1	18	3.827	3.595
exp2	p01	19	M	2	7	45	0.931	cang2	caN2	0	618	sy1	seg3	3-Segment	Monosyllable	CVN	b1	NA	1	18	3.827	3.595
exp2	p36	31	M	2	8	13	1.135	cang2	caN2	ceng2	618	sy1	seg3	3-Segment	Monosyllable	CVN	b1	NA	1	18	3.827	3.595
exp2	p37	20	F	3	8	67	0.798	cang2	caN2	0	618	sy1	seg3	3-Segment	Monosyllable	CVN	b2	0.99788	1	18	3.827	3.595
exp1	p23	19	M	3	6	88	0.894	can3	can3	0	616	sy1	seg3	3-Segment	Monosyllable	CVN	NA	NA	1	22	3.326	3.022
exp1	p16	19	F	1	8	106	0.758	can3	can3	0	616	sy1	seg3	3-Segment	Monosyllable	CVN	NA	NA	1	22	3.326	3.022
exp1	p04	19	M	2	5	58	0.872	can3	can3	0	616	sy1	seg3	3-Segment	Monosyllable	CVN	NA	NA	1	22	3.326	3.022
exp1	p13	19	F	1	8	39	0.896	can3	can3	0	616	sy1	seg3	3-Segment	Monosyllable	CVN	NA	NA	1	22	3.326	3.022
exp1	p17	20	F	2	8	106	0.884	can3	can3	0	616	sy1	seg3	3-Segment	Monosyllable	CVN	NA	NA	1	22	3.326	3.022
exp1	p02	19	M	2	7	17	0.799	can3	can3	0	616	sy1	seg3	3-Segment	Monosyllable	CVN	NA	NA	1	22	3.326	3.022
exp1	p21	22	F	1	8	90	0.724	can3	can3	0	616	sy1	seg3	3-Segment	Monosyllable	CVN	NA	NA	1	22	3.326	3.022
exp1	p10	20	F	2	8	140	0.727	can3	can3	0	616	sy1	seg3	3-Segment	Monosyllable	CVN	NA	NA	1	22	3.326	3.022
exp1	p15	18	F	3	8	91	1.237	can3	can3	0	616	sy1	seg3	3-Segment	Monosyllable	CVN	NA	NA	1	22	3.326	3.022
exp1	p19	20	M	2	6	90	1.095	can3	can3	0	616	sy1	seg3	3-Segment	Monosyllable	CVN	NA	NA	1	22	3.326	3.022
exp1	p01	27	F	2	6	17	1.095	can3	can3	0	616	sy1	seg3	3-Segment	Monosyllable	CVN	NA	NA	1	22	3.326	3.022
exp1	p06	22	F	6	8	38	0.68	can3	can3	0	616	sy1	seg3	3-Segment	Monosyllable	CVN	NA	NA	1	22	3.326	3.022
exp1	p03	25	F	2	9	17	0.721	can3	can3	0	616	sy1	seg3	3-Segment	Monosyllable	CVN	NA	NA	1	22	3.326	3.022
exp1	p18	21	F	3	6	5	1.073	can3	can3	0	616	sy1	seg3	3-Segment	Monosyllable	CVN	NA	NA	1	22	3.326	3.022
exp1	p25	23	M	2	8	88	0.765	can3	can3	0	616	sy1	seg3	3-Segment	Monosyllable	CVN	NA	NA	1	22	3.326	3.022
exp1	p26	20	M	3	5	6	0.585	can3	can3	0	616	sy1	seg3	3-Segment	Monosyllable	CVN	NA	NA	1	22	3.326	3.022
exp1	p12	21	F	2	8	39	0.807	can3	can3	0	616	sy1	seg3	3-Segment	Monosyllable	CVN	NA	NA	1	22	3.326	3.022
exp1	p31	18	F	1	7	140	0.647	can3	can3	0	616	sy1	seg3	3-Segment	Monosyllable	CVN	NA	NA	1	22	3.326	3.022
exp1	p14	24	F	2	6	91	0.329	can3	can3	0	616	sy1	seg3	3-Segment	Monosyllable	CVN	NA	NA	1	22	3.326	3.022
exp1	p34	28	M	2	5	106	0.926	can3	can3	0	616	sy1	seg3	3-Segment	Monosyllable	CVN	NA	NA	1	22	3.326	3.022
exp1	p20	23	F	1	5	5	1.493	can3	can3	0	616	sy1	seg3	3-Segment	Monosyllable	CVN	NA	NA	1	22	3.326	3.022
exp1	p33	20	F	2	1	39	0.888	can3	can3	0	616	sy1	seg3	3-Segment	Monosyllable	CVN	NA	NA	1	22	3.326	3.022
exp1	p05	19	M	2	7	58	0.832	can3	can3	0	616	sy1	seg3	3-Segment	Monosyllable	CVN	NA	NA	1	22	3.326	3.022
exp1	p24	19	M	1	7	6	0.781	can3	can3	0	616	sy1	seg3	3-Segment	Monosyllable	CVN	NA	NA	1	22	3.326	3.022
exp1	p07	24	F	3	6	38	0.779	can3	can3	0	616	sy1	seg3	3-Segment	Monosyllable	CVN	NA	NA	1	22	3.326	3.022
exp1	p30	35	M	3	6	38	0.937	can3	can3	0	616	sy1	seg3	3-Segment	Monosyllable	CVN	NA	NA	1	22	3.326	3.022
exp1	p08	23	F	2	7	133	0.816	can3	can3	0	616	sy1	seg3	3-Segment	Monosyllable	CVN	NA	NA	1	22	3.326	3.022
exp1	p32	24	F	3	6	133	0.928	can3	can3	0	616	sy1	seg3	3-Segment	Monosyllable	CVN	NA	NA	1	22	3.326	3.022
exp1	p09	24	F	1	5	133	0.796	can3	can3	0	616	sy1	seg3	3-Segment	Monosyllable	CVN	NA	NA	1	22	3.326	3.022
exp1	p28	21	M	2	8	125	0.762	can3	can3	0	616	sy1	seg3	3-Segment	Monosyllable	CVN	NA	NA	1	22	3.326	3.022
exp1	p27	29	M	2	9	125	0.907	can3	can3	0	616	sy1	seg3	3-Segment	Monosyllable	CVN	NA	NA	1	22	3.326	3.022
exp1	p11	22	F	3	7	140	0.782	can3	can3	0	616	sy1	seg3	3-Segment	Monosyllable	CVN	NA	NA	1	22	3.326	3.022
exp1	p29	20	F	3	8	58	0.901	can3	can3	0	616	sy1	seg3	3-Segment	Monosyllable	CVN	NA	NA	1	22	3.326	3.022
exp3	p01	25	F	3	7	44	0.755	can3	can3	0	616	sy1	seg3	3-Segment	Monosyllable	CVN	b2	NA	1	22	3.326	3.022
exp3	p02	24	F	1	7	104	0.818	can3	can3	0	616	sy1	seg3	3-Segment	Monosyllable	CVN	b3	NA	1	22	3.326	3.022
exp3	p03	34	M	2	7	58	0.963	can3	can3	0	616	sy1	seg3	3-Segment	Monosyllable	CVN	b2	NA	1	22	3.326	3.022
exp3	p04	28	F	2	7	32	0.858	can3	can3	0	616	sy1	seg3	3-Segment	Monosyllable	CVN	b1	NA	1	22	3.326	3.022
exp3	p05	28	F	3	6	105	0.936	can3	can3	0	616	sy1	seg3	3-Segment	Monosyllable	CVN	b3	NA	1	22	3.326	3.022
exp3	p06	27	M	2	6	28	0.895	can3	can3	0	616	sy1	seg3	3-Segment	Monosyllable	CVN	b1	NA	1	22	3.326	3.022
exp3	p07	26	M	1	6	128	0.914	can3	can3	0	616	sy1	seg3	3-Segment	Monosyllable	CVN	b4	NA	1	22	3.326	3.022
exp3	p08	24	F	1	6	78	0.74	can3	can3	0	616	sy1	seg3	3-Segment	Monosyllable	CVN	b3	NA	1	22	3.326	3.022
exp3	p09	25	F	1	7	7	0.621	can3	can3	0	616	sy1	seg3	3-Segment	Monosyllable	CVN	b1	NA	1	22	3.326	3.022
exp3	p10	21	F	2	7	18	0.792	can3	can3	0	616	sy1	seg3	3-Segment	Monosyllable	CVN	b1	NA	1	22	3.326	3.022
exp3	p11	33	M	1	5	8	0.886	can3	can3	0	616	sy1	seg3	3-Segment	Monosyllable	CVN	b1	NA	1	22	3.326	3.022
exp3	p12	28	F	2	6	104	0.439	can3	can3	0	616	sy1	seg3	3-Segment	Monosyllable	CVN	b3	NA	1	22	3.326	3.022
exp3	p13	28	M	1	6	94	0.714	can3	can3	0	616	sy1	seg3	3-Segment	Monosyllable	CVN	b3	NA	1	22	3.326	3.022
exp3	p14	28	F	2	7	68	0.816	can3	can3	0	616	sy1	seg3	3-Segment	Monosyllable	CVN	b2	NA	1	22	3.326	3.022
exp3	p15	24	F	3	7	141	0.724	can3	can3	0	616	sy1	seg3	3-Segment	Monosyllable	CVN	b4	NA	1	22	3.326	3.022
exp3	p16	29	F	2	6	100	0.755	can3	can3	0	616	sy1	seg3	3-Segment	Monosyllable	CVN	b3	NA	1	22	3.326	3.022
exp3	p17	27	M	1	6	92	0.888	can3	can3	0	616	sy1	seg3	3-Segment	Monosyllable	CVN	b3	NA	1	22	3.326	3.022
exp3	p18	25	F	3	7	78	0.876	can3	can3	0	616	sy1	seg3	3-Segment	Monosyllable	CVN	b3	NA	1	22	3.326	3.022
exp3	p19	27	F	2	7	115	0.865	can3	can3	0	616	sy1	seg3	3-Segment	Monosyllable	CVN	b4	NA	1	22	3.326	3.022
exp3	p20	26	F	2	7	90	0.812	can3	can3	0	616	sy1	seg3	3-Segment	Monosyllable	CVN	b3	NA	1	22	3.326	3.022
exp3	p21	26	F	2	7	80	0.931	can3	can3	0	616	sy1	seg3	3-Segment	Monosyllable	CVN	b3	NA	1	22	3.326	3.022
exp3	p22	26	M	1	7	32	0.963	can3	can3	0	616	sy1	seg3	3-Segment	Monosyllable	CVN	b1	NA	1	22	3.326	3.022
exp3	p23	23	F	3	7	94	0.881	can3	can3	0	616	sy1	seg3	3-Segment	Monosyllable	CVN	b3	NA	1	22	3.326	3.022
exp3	p24	23	F	1	7	68	0.971	can3	can3	0	616	sy1	seg3	3-Segment	Monosyllable	CVN	b2	NA	1	22	3.326	3.022
exp3	p25	19	M	2	9	69	0.756	can3	can3	0	616	sy1	seg3	3-Segment	Monosyllable	CVN	b2	NA	1	22	3.326	3.022
exp3	p26	19	F	2	7	136	1.104	can3	can3	0	616	sy1	seg3	3-Segment	Monosyllable	CVN	b4	NA	1	22	3.326	3.022
exp3	p27	20	F	3	7	92	0.855	can3	can3	0	616	sy1	seg3	3-Segment	Monosyllable	CVN	b3	NA	1	22	3.326	3.022
exp3	p29	30	F	2	7	6	0.841	can3	can3	0	616	sy1	seg3	3-Segment	Monosyllable	CVN	b1	NA	1	22	3.326	3.022
exp3	p30	23	F	2	7	7	0.933	can3	can3	0	616	sy1	seg3	3-Segment	Monosyllable	CVN	b1	NA	1	22	3.326	3.022
exp3	p31	38	F	1	8	54	0.708	can3	can3	0	616	sy1	seg3	3-Segment	Monosyllable	CVN	b2	NA	1	22	3.326	3.022
exp3	p32	19	F	1	7	116	0.701	can3	can3	0	616	sy1	seg3	3-Segment	Monosyllable	CVN	b4	NA	1	22	3.326	3.022
exp3	p33	19	F	2	8	68	0.834	can3	can3	0	616	sy1	seg3	3-Segment	Monosyllable	CVN	b2	NA	1	22	3.326	3.022
exp3	p34	27	F	2	7	22	0.788	can3	can3	0	616	sy1	seg3	3-Segment	Monosyllable	CVN	b1	NA	1	22	3.326	3.022
exp3	p35	32	F	3	8	32	0.837	can3	can3	0	616	sy1	seg3	3-Segment	Monosyllable	CVN	b1	NA	1	22	3.326	3.022
exp3	p36	24	M	3	7	141	0.759	can3	can3	0	616	sy1	seg3	3-Segment	Monosyllable	CVN	b4	NA	1	22	3.326	3.022
exp2	p27	23	F	1	8	49	0.891	can3	can3	0	616	sy1	seg3	3-Segment	Monosyllable	CVN	b2	0.9978	1	22	3.326	3.022
exp2	p33	26	F	1	6	116	0.88	can3	can3	0	616	sy1	seg3	3-Segment	Monosyllable	CVN	b3	0.99659	1	22	3.326	3.022
exp2	p03	28	F	1	7	27	1.165	can3	can3	0	616	sy1	seg3	3-Segment	Monosyllable	CVN	b1	NA	1	22	3.326	3.022
exp2	p13	28	M	2	6	48	0.954	can3	can3	0	616	sy1	seg3	3-Segment	Monosyllable	CVN	b2	0.99816	1	22	3.326	3.022
exp2	p28	23	F	1	8	49	0.983	can3	can3	0	616	sy1	seg3	3-Segment	Monosyllable	CVN	b2	0.99771	1	22	3.326	3.022
exp2	p09	19	M	2	7	68	0.81	can3	can3	0	616	sy1	seg3	3-Segment	Monosyllable	CVN	b2	0.99786	1	22	3.326	3.022
exp2	p18	19	F	2	6	143	1.503	can3	can3	0	616	sy1	seg3	3-Segment	Monosyllable	CVN	b4	NA	1	22	3.326	3.022
exp2	p32	26	F	2	5	116	0.813	can3	can3	0	616	sy1	seg3	3-Segment	Monosyllable	CVN	b3	0.99756	1	22	3.326	3.022
exp2	p10	28	M	2	7	48	0.947	can3	can3	0	616	sy1	seg3	3-Segment	Monosyllable	CVN	b2	0.99781	1	22	3.326	3.022
exp2	p43	26	M	2	7	100	0.775	can3	can3	0	616	sy1	seg3	3-Segment	Monosyllable	CVN	b3	0.99683	1	22	3.326	3.022
exp2	p01	19	M	2	7	27	0.959	can3	can3	0	616	sy1	seg3	3-Segment	Monosyllable	CVN	b1	NA	1	22	3.326	3.022
exp2	p02	26	M	3	8	27	0.923	can3	can3	0	616	sy1	seg3	3-Segment	Monosyllable	CVN	b1	NA	1	22	3.326	3.022
exp2	p23	23	F	3	8	150	0.795	can3	can3	0	616	sy1	seg3	3-Segment	Monosyllable	CVN	b4	0.99717	1	22	3.326	3.022
exp2	p26	24	F	1	7	49	0.999	can3	can3	0	616	sy1	seg3	3-Segment	Monosyllable	CVN	b2	0.99776	1	22	3.326	3.022
exp2	p46	29	F	2	7	98	1.1	can3	can3	0	616	sy1	seg3	3-Segment	Monosyllable	CVN	b3	0.99729	1	22	3.326	3.022
exp2	p30	23	F	2	8	101	0.789	can3	can3	0	616	sy1	seg3	3-Segment	Monosyllable	CVN	b3	0.99649	1	22	3.326	3.022
exp2	p39	22	M	2	8	15	0.952	can3	can3	0	616	sy1	seg3	3-Segment	Monosyllable	CVN	b1	NA	1	22	3.326	3.022
exp2	p17	23	M	3	5	143	0.94	can3	can3	0	616	sy1	seg3	3-Segment	Monosyllable	CVN	b4	0.99743	1	22	3.326	3.022
exp2	p41	26	F	1	6	100	1.557	can3	can3	0	616	sy1	seg3	3-Segment	Monosyllable	CVN	b3	0.99778	1	22	3.326	3.022
exp2	p12	26	M	2	6	48	0.739	can3	can3	0	616	sy1	seg3	3-Segment	Monosyllable	CVN	b2	0.99796	1	22	3.326	3.022
exp2	p42	20	F	1	7	100	0.741	can3	can3	0	616	sy1	seg3	3-Segment	Monosyllable	CVN	b3	0.99747	1	22	3.326	3.022
exp2	p36	31	M	2	8	101	1.166	can3	can3	0	616	sy1	seg3	3-Segment	Monosyllable	CVN	b3	0.99766	1	22	3.326	3.022
exp2	p29	20	M	4	6	101	0.841	can3	can3	0	616	sy1	seg3	3-Segment	Monosyllable	CVN	b3	0.99674	1	22	3.326	3.022
exp2	p07	26	F	3	7	68	0.98	can3	can3	0	616	sy1	seg3	3-Segment	Monosyllable	CVN	b2	0.99812	1	22	3.326	3.022
exp2	p25	23	M	2	6	49	0.953	can3	can3	0	616	sy1	seg3	3-Segment	Monosyllable	CVN	b2	0.99797	1	22	3.326	3.022
exp2	p16	20	F	3	7	143	0.848	can3	can3	0	616	sy1	seg3	3-Segment	Monosyllable	CVN	b4	0.99748	1	22	3.326	3.022
exp2	p05	23	F	3	7	27	0.89	can3	can3	0	616	sy1	seg3	3-Segment	Monosyllable	CVN	b1	NA	1	22	3.326	3.022
exp2	p40	22	F	2	7	15	0.839	can3	can3	0	616	sy1	seg3	3-Segment	Monosyllable	CVN	b1	NA	1	22	3.326	3.022
exp2	p38	24	F	1	6	15	1.06	can3	can3	0	616	sy1	seg3	3-Segment	Monosyllable	CVN	b1	NA	1	22	3.326	3.022
exp2	p45	23	F	2	7	98	0.724	can3	can3	0	616	sy1	seg3	3-Segment	Monosyllable	CVN	b3	0.99718	1	22	3.326	3.022
exp2	p08	19	M	3	7	68	0.822	can3	can3	0	616	sy1	seg3	3-Segment	Monosyllable	CVN	b2	0.99817	1	22	3.326	3.022
exp2	p11	25	M	3	8	68	0.781	can3	can3	0	616	sy1	seg3	3-Segment	Monosyllable	CVN	b2	0.998	1	22	3.326	3.022
exp2	p22	22	F	2	7	150	1.022	can3	can3	0	616	sy1	seg3	3-Segment	Monosyllable	CVN	b4	0.9971	1	22	3.326	3.022
exp2	p04	24	F	1	5	27	0.839	can3	can3	0	616	sy1	seg3	3-Segment	Monosyllable	CVN	b1	NA	1	22	3.326	3.022
exp2	p15	23	F	1	7	143	0.958	can3	can3	0	616	sy1	seg3	3-Segment	Monosyllable	CVN	b4	0.99752	1	22	3.326	3.022
exp2	p20	23	M	2	7	48	0.892	can3	can3	0	616	sy1	seg3	3-Segment	Monosyllable	CVN	b2	0.99807	1	22	3.326	3.022
exp2	p47	23	F	1	7	98	0.931	can3	can3	0	616	sy1	seg3	3-Segment	Monosyllable	CVN	b3	0.99701	1	22	3.326	3.022
exp2	p31	38	F	2	6	116	0.795	can3	can3	0	616	sy1	seg3	3-Segment	Monosyllable	CVN	b3	0.99656	1	22	3.326	3.022
exp2	p44	23	F	2	8	100	1.018	can3	can3	0	616	sy1	seg3	3-Segment	Monosyllable	CVN	b3	0.99725	1	22	3.326	3.022
exp2	p34	26	M	2	6	116	0.973	can3	can3	0	616	sy1	seg3	3-Segment	Monosyllable	CVN	b3	0.99796	1	22	3.326	3.022
exp2	p14	38	M	2	5	48	1.089	can3	can3	0	616	sy1	seg3	3-Segment	Monosyllable	CVN	b2	0.99808	1	22	3.326	3.022
exp2	p35	23	F	2	6	101	0.808	can3	can3	0	616	sy1	seg3	3-Segment	Monosyllable	CVN	b3	0.99802	1	22	3.326	3.022
exp2	p19	26	F	3	8	143	0.833	can3	can3	0	616	sy1	seg3	3-Segment	Monosyllable	CVN	b4	0.99735	1	22	3.326	3.022
exp2	p37	20	F	3	8	15	1.114	can3	can3	0	616	sy1	seg3	3-Segment	Monosyllable	CVN	b1	NA	1	22	3.326	3.022
exp2	p21	21	F	3	5	150	0.818	can3	can3	0	616	sy1	seg3	3-Segment	Monosyllable	CVN	b4	0.99687	1	22	3.326	3.022
exp2	p06	21	F	3	8	68	1.152	can3	can3	0	616	sy1	seg3	3-Segment	Monosyllable	CVN	b2	0.99758	1	22	3.326	3.022
exp2	p24	21	M	2	6	150	0.911	can3	can3	0	616	sy1	seg3	3-Segment	Monosyllable	CVN	b4	0.99713	1	22	3.326	3.022
exp1	p26	20	M	3	5	114	0.649	chong3	CoN3	0	608	sy1	seg3	3-Segment	Monosyllable	CVN	NA	NA	1	16	3.543	2.1
exp1	p12	21	F	2	8	13	0.868	chong3	CoN3	0	608	sy1	seg3	3-Segment	Monosyllable	CVN	NA	NA	1	16	3.543	2.1
exp1	p10	20	F	2	8	131	0.838	chong3	CoN3	0	608	sy1	seg3	3-Segment	Monosyllable	CVN	NA	NA	1	16	3.543	2.1
exp1	p31	18	F	1	7	131	0.558	chong3	CoN3	0	608	sy1	seg3	3-Segment	Monosyllable	CVN	NA	NA	1	16	3.543	2.1
exp1	p03	25	F	2	9	53	0.646	chong3	CoN3	0	608	sy1	seg3	3-Segment	Monosyllable	CVN	NA	NA	1	16	3.543	2.1
exp1	p17	20	F	2	8	18	0.956	chong3	CoN3	0	608	sy1	seg3	3-Segment	Monosyllable	CVN	NA	NA	1	16	3.543	2.1
exp1	p15	18	F	3	8	112	0.939	chong3	CoN3	0	608	sy1	seg3	3-Segment	Monosyllable	CVN	NA	NA	1	16	3.543	2.1
exp1	p14	24	F	2	6	112	0.364	chong3	CoN3	0	608	sy1	seg3	3-Segment	Monosyllable	CVN	NA	NA	1	16	3.543	2.1
exp1	p23	19	M	3	6	42	0.808	chong3	CoN3	0	608	sy1	seg3	3-Segment	Monosyllable	CVN	NA	NA	1	16	3.543	2.1
exp1	p28	21	M	2	8	69	0.788	chong3	CoN3	0	608	sy1	seg3	3-Segment	Monosyllable	CVN	NA	NA	1	16	3.543	2.1
exp1	p20	23	F	1	5	60	0.967	chong3	CoN3	0	608	sy1	seg3	3-Segment	Monosyllable	CVN	NA	NA	1	16	3.543	2.1
exp1	p01	27	F	2	6	53	0.87	chong3	CoN3	0	608	sy1	seg3	3-Segment	Monosyllable	CVN	NA	NA	1	16	3.543	2.1
exp1	p32	24	F	3	6	66	0.845	chong3	CoN3	0	608	sy1	seg3	3-Segment	Monosyllable	CVN	NA	NA	1	16	3.543	2.1
exp1	p19	20	M	2	6	11	0.933	chong3	CoN3	0	608	sy1	seg3	3-Segment	Monosyllable	CVN	NA	NA	1	16	3.543	2.1
exp1	p21	22	F	1	8	11	0.786	chong3	CoN3	0	608	sy1	seg3	3-Segment	Monosyllable	CVN	NA	NA	1	16	3.543	2.1
exp1	p06	22	F	6	8	9	0.725	chong3	CoN3	0	608	sy1	seg3	3-Segment	Monosyllable	CVN	NA	NA	1	16	3.543	2.1
exp1	p09	24	F	1	5	66	0.785	chong3	CoN3	0	608	sy1	seg3	3-Segment	Monosyllable	CVN	NA	NA	1	16	3.543	2.1
exp1	p02	19	M	2	7	53	0.788	chong3	CoN3	0	608	sy1	seg3	3-Segment	Monosyllable	CVN	NA	NA	1	16	3.543	2.1
exp1	p08	23	F	2	7	66	0.807	chong3	CoN3	0	608	sy1	seg3	3-Segment	Monosyllable	CVN	NA	NA	1	16	3.543	2.1
exp1	p29	20	F	3	8	87	0.857	chong3	CoN3	0	608	sy1	seg3	3-Segment	Monosyllable	CVN	NA	NA	1	16	3.543	2.1
exp1	p13	19	F	1	8	13	0.856	chong3	CoN3	0	608	sy1	seg3	3-Segment	Monosyllable	CVN	NA	NA	1	16	3.543	2.1
exp1	p07	24	F	3	6	9	0.848	chong3	CoN3	0	608	sy1	seg3	3-Segment	Monosyllable	CVN	NA	NA	1	16	3.543	2.1
exp1	p25	23	M	2	8	42	0.858	chong3	CoN3	0	608	sy1	seg3	3-Segment	Monosyllable	CVN	NA	NA	1	16	3.543	2.1
exp1	p34	28	M	2	5	18	1.121	chong3	CoN3	0	608	sy1	seg3	3-Segment	Monosyllable	CVN	NA	NA	1	16	3.543	2.1
exp1	p18	21	F	3	6	60	0.994	chong3	CoN3	0	608	sy1	seg3	3-Segment	Monosyllable	CVN	NA	NA	1	16	3.543	2.1
exp1	p27	29	M	2	9	69	0.859	chong3	CoN3	0	608	sy1	seg3	3-Segment	Monosyllable	CVN	NA	NA	1	16	3.543	2.1
exp1	p30	35	M	3	6	9	0.851	chong3	CoN3	0	608	sy1	seg3	3-Segment	Monosyllable	CVN	NA	NA	1	16	3.543	2.1
exp1	p24	19	M	1	7	114	0.662	chong3	CoN3	0	608	sy1	seg3	3-Segment	Monosyllable	CVN	NA	NA	1	16	3.543	2.1
exp1	p16	19	F	1	8	18	0.798	chong3	CoN3	0	608	sy1	seg3	3-Segment	Monosyllable	CVN	NA	NA	1	16	3.543	2.1
exp1	p05	19	M	2	7	87	0.768	chong3	CoN3	0	608	sy1	seg3	3-Segment	Monosyllable	CVN	NA	NA	1	16	3.543	2.1
exp1	p11	22	F	3	7	131	0.782	chong3	CoN3	0	608	sy1	seg3	3-Segment	Monosyllable	CVN	NA	NA	1	16	3.543	2.1
exp1	p04	19	M	2	5	87	0.804	chong3	CoN3	0	608	sy1	seg3	3-Segment	Monosyllable	CVN	NA	NA	1	16	3.543	2.1
exp1	p33	20	F	2	1	13	1.028	chong3	CoN3	0	608	sy1	seg3	3-Segment	Monosyllable	CVN	NA	NA	1	16	3.543	2.1
exp3	p01	25	F	3	7	68	0.76	chong3	CoN3	0	608	sy1	seg3	3-Segment	Monosyllable	CVN	b2	NA	1	16	3.543	2.1
exp3	p02	24	F	1	7	89	0.844	chong3	CoN3	0	608	sy1	seg3	3-Segment	Monosyllable	CVN	b3	NA	1	16	3.543	2.1
exp3	p03	34	M	2	7	40	0.864	chong3	CoN3	0	608	sy1	seg3	3-Segment	Monosyllable	CVN	b2	NA	1	16	3.543	2.1
exp3	p04	28	F	2	7	26	1.087	chong3	CoN3	0	608	sy1	seg3	3-Segment	Monosyllable	CVN	b1	NA	1	16	3.543	2.1
exp3	p05	28	F	3	6	102	0.944	chong3	CoN3	0	608	sy1	seg3	3-Segment	Monosyllable	CVN	b3	NA	1	16	3.543	2.1
exp3	p06	27	M	2	6	8	0.9	chong3	CoN3	0	608	sy1	seg3	3-Segment	Monosyllable	CVN	b1	NA	1	16	3.543	2.1
exp3	p07	26	M	1	6	118	0.873	chong3	CoN3	0	608	sy1	seg3	3-Segment	Monosyllable	CVN	b4	NA	1	16	3.543	2.1
exp3	p08	24	F	1	6	107	0.608	chong3	CoN3	0	608	sy1	seg3	3-Segment	Monosyllable	CVN	b3	NA	1	16	3.543	2.1
exp3	p09	25	F	1	7	5	0.766	chong3	CoN3	0	608	sy1	seg3	3-Segment	Monosyllable	CVN	b1	NA	1	16	3.543	2.1
exp3	p10	21	F	2	7	5	0.975	chong3	CoN3	0	608	sy1	seg3	3-Segment	Monosyllable	CVN	b1	NA	1	16	3.543	2.1
exp3	p11	33	M	1	5	32	0.829	chong3	CoN3	0	608	sy1	seg3	3-Segment	Monosyllable	CVN	b1	NA	1	16	3.543	2.1
exp3	p12	28	F	2	6	89	0.525	chong3	CoN3	0	608	sy1	seg3	3-Segment	Monosyllable	CVN	b3	NA	1	16	3.543	2.1
exp3	p13	28	M	1	6	76	0.688	chong3	CoN3	0	608	sy1	seg3	3-Segment	Monosyllable	CVN	b3	NA	1	16	3.543	2.1
exp3	p14	28	F	2	7	62	0.849	chong3	CoN3	0	608	sy1	seg3	3-Segment	Monosyllable	CVN	b2	NA	1	16	3.543	2.1
exp3	p15	24	F	3	7	138	0.578	chong3	CoN3	0	608	sy1	seg3	3-Segment	Monosyllable	CVN	b4	NA	1	16	3.543	2.1
exp3	p16	29	F	2	6	80	0.783	chong3	CoN3	0	608	sy1	seg3	3-Segment	Monosyllable	CVN	b3	NA	1	16	3.543	2.1
exp3	p17	27	M	1	6	82	0.983	chong3	CoN3	0	608	sy1	seg3	3-Segment	Monosyllable	CVN	b3	NA	1	16	3.543	2.1
exp3	p18	25	F	3	7	107	0.822	chong3	CoN3	0	608	sy1	seg3	3-Segment	Monosyllable	CVN	b3	NA	1	16	3.543	2.1
exp3	p19	27	F	2	7	113	0.858	chong3	CoN3	0	608	sy1	seg3	3-Segment	Monosyllable	CVN	b4	NA	1	16	3.543	2.1
exp3	p20	26	F	2	7	77	0.831	chong3	CoN3	0	608	sy1	seg3	3-Segment	Monosyllable	CVN	b3	NA	1	16	3.543	2.1
exp3	p21	26	F	2	7	104	0.894	chong3	CoN3	0	608	sy1	seg3	3-Segment	Monosyllable	CVN	b3	NA	1	16	3.543	2.1
exp3	p22	26	M	1	7	17	0.891	chong3	CoN3	0	608	sy1	seg3	3-Segment	Monosyllable	CVN	b1	NA	1	16	3.543	2.1
exp3	p23	23	F	3	7	76	0.942	chong3	CoN3	0	608	sy1	seg3	3-Segment	Monosyllable	CVN	b3	NA	1	16	3.543	2.1
exp3	p24	23	F	1	7	62	0.895	chong3	CoN3	0	608	sy1	seg3	3-Segment	Monosyllable	CVN	b2	NA	1	16	3.543	2.1
exp3	p25	19	M	2	9	66	0.788	chong3	CoN3	0	608	sy1	seg3	3-Segment	Monosyllable	CVN	b2	NA	1	16	3.543	2.1
exp3	p26	19	F	2	7	116	0.959	chong3	CoN3	0	608	sy1	seg3	3-Segment	Monosyllable	CVN	b4	NA	1	16	3.543	2.1
exp3	p27	20	F	3	7	82	0.896	chong3	CoN3	0	608	sy1	seg3	3-Segment	Monosyllable	CVN	b3	NA	1	16	3.543	2.1
exp3	p29	30	F	2	7	35	0.772	chong3	CoN3	0	608	sy1	seg3	3-Segment	Monosyllable	CVN	b1	NA	1	16	3.543	2.1
exp3	p30	23	F	2	7	5	0.862	chong3	CoN3	0	608	sy1	seg3	3-Segment	Monosyllable	CVN	b1	NA	1	16	3.543	2.1
exp3	p31	38	F	1	8	41	0.736	chong3	CoN3	0	608	sy1	seg3	3-Segment	Monosyllable	CVN	b2	NA	1	16	3.543	2.1
exp3	p32	19	F	1	7	140	0.741	chong3	CoN3	0	608	sy1	seg3	3-Segment	Monosyllable	CVN	b4	NA	1	16	3.543	2.1
exp3	p33	19	F	2	8	53	0.775	chong3	CoN3	0	608	sy1	seg3	3-Segment	Monosyllable	CVN	b2	NA	1	16	3.543	2.1
exp3	p34	27	F	2	7	4	0.721	chong3	CoN3	0	608	sy1	seg3	3-Segment	Monosyllable	CVN	b1	NA	1	16	3.543	2.1
exp3	p35	32	F	3	8	26	0.861	chong3	CoN3	0	608	sy1	seg3	3-Segment	Monosyllable	CVN	b1	NA	1	16	3.543	2.1
exp3	p36	24	M	3	7	138	0.59	chong3	CoN3	0	608	sy1	seg3	3-Segment	Monosyllable	CVN	b4	NA	1	16	3.543	2.1
exp2	p26	24	F	1	7	23	0.968	chong3	CoN3	0	608	sy1	seg3	3-Segment	Monosyllable	CVN	b1	NA	1	16	3.543	2.1
exp2	p02	26	M	3	8	63	0.851	chong3	CoN3	0	608	sy1	seg3	3-Segment	Monosyllable	CVN	b2	0.99804	1	16	3.543	2.1
exp2	p09	19	M	2	7	97	0.769	chong3	CoN3	0	608	sy1	seg3	3-Segment	Monosyllable	CVN	b3	0.99751	1	16	3.543	2.1
exp2	p16	20	F	3	7	76	0.849	chong3	CoN3	0	608	sy1	seg3	3-Segment	Monosyllable	CVN	b2	0.99775	1	16	3.543	2.1
exp2	p08	19	M	3	7	97	0.761	chong3	CoN3	0	608	sy1	seg3	3-Segment	Monosyllable	CVN	b3	0.9981	1	16	3.543	2.1
exp2	p10	28	M	2	7	19	0.934	chong3	CoN3	0	608	sy1	seg3	3-Segment	Monosyllable	CVN	b1	NA	1	16	3.543	2.1
exp2	p05	23	F	3	7	63	0.809	chong3	CoN3	0	608	sy1	seg3	3-Segment	Monosyllable	CVN	b2	0.99812	1	16	3.543	2.1
exp2	p22	22	F	2	7	141	1.147	chong3	CoN3	0	608	sy1	seg3	3-Segment	Monosyllable	CVN	b4	0.9971	1	16	3.543	2.1
exp2	p25	23	M	2	6	23	0.979	chong3	CoN3	0	608	sy1	seg3	3-Segment	Monosyllable	CVN	b1	NA	1	16	3.543	2.1
exp2	p06	21	F	3	8	97	1.04	chong3	CoN3	0	608	sy1	seg3	3-Segment	Monosyllable	CVN	b3	0.99661	1	16	3.543	2.1
exp2	p35	23	F	2	6	122	0.764	chong3	CoN3	0	608	sy1	seg3	3-Segment	Monosyllable	CVN	b4	0.998	1	16	3.543	2.1
exp2	p11	25	M	3	8	97	0.782	chong3	CoN3	0	608	sy1	seg3	3-Segment	Monosyllable	CVN	b3	0.99769	1	16	3.543	2.1
exp2	p13	28	M	2	6	19	0.914	chong3	CoN3	0	608	sy1	seg3	3-Segment	Monosyllable	CVN	b1	NA	1	16	3.543	2.1
exp2	p07	26	F	3	7	97	0.966	chong3	CoN3	0	608	sy1	seg3	3-Segment	Monosyllable	CVN	b3	0.99791	1	16	3.543	2.1
exp2	p01	19	M	2	7	63	0.834	chong3	CoN3	0	608	sy1	seg3	3-Segment	Monosyllable	CVN	b2	0.99789	1	16	3.543	2.1
exp2	p43	26	M	2	7	21	0.846	chong3	CoN3	0	608	sy1	seg3	3-Segment	Monosyllable	CVN	b1	NA	1	16	3.543	2.1
exp2	p39	22	M	2	8	70	1.021	chong3	CoN3	0	608	sy1	seg3	3-Segment	Monosyllable	CVN	b2	0.99814	1	16	3.543	2.1
exp2	p44	23	F	2	8	21	1.229	chong3	CoN3	0	608	sy1	seg3	3-Segment	Monosyllable	CVN	b1	NA	1	16	3.543	2.1
exp2	p15	23	F	1	7	76	0.909	chong3	CoN3	0	608	sy1	seg3	3-Segment	Monosyllable	CVN	b2	0.99783	1	16	3.543	2.1
exp2	p03	28	F	1	7	63	1.072	chong3	CoN3	0	608	sy1	seg3	3-Segment	Monosyllable	CVN	b2	0.99815	1	16	3.543	2.1
exp2	p14	38	M	2	5	19	0.99	chong3	CoN3	0	608	sy1	seg3	3-Segment	Monosyllable	CVN	b1	NA	1	16	3.543	2.1
exp2	p24	21	M	2	6	141	1.021	chong3	CoN3	0	608	sy1	seg3	3-Segment	Monosyllable	CVN	b4	0.99713	1	16	3.543	2.1
exp2	p30	23	F	2	8	122	0.761	chong3	CoN3	0	608	sy1	seg3	3-Segment	Monosyllable	CVN	b4	0.99647	1	16	3.543	2.1
exp2	p47	23	F	1	7	52	1.078	chong3	CoN3	0	608	sy1	seg3	3-Segment	Monosyllable	CVN	b2	0.99744	1	16	3.543	2.1
exp2	p28	23	F	1	8	23	0.991	chong3	CoN3	0	608	sy1	seg3	3-Segment	Monosyllable	CVN	b1	NA	1	16	3.543	2.1
exp2	p36	31	M	2	8	122	0.981	chong3	CoN3	0	608	sy1	seg3	3-Segment	Monosyllable	CVN	b4	0.99733	1	16	3.543	2.1
exp2	p46	29	F	2	7	52	0.962	chong3	CoN3	0	608	sy1	seg3	3-Segment	Monosyllable	CVN	b2	0.9981	1	16	3.543	2.1
exp2	p04	24	F	1	5	63	0.827	chong3	CoN3	0	608	sy1	seg3	3-Segment	Monosyllable	CVN	b2	0.99793	1	16	3.543	2.1
exp2	p34	26	M	2	6	28	1.131	chong3	CoN3	0	608	sy1	seg3	3-Segment	Monosyllable	CVN	b1	NA	1	16	3.543	2.1
exp2	p29	20	M	4	6	122	0.814	chong3	CoN3	0	608	sy1	seg3	3-Segment	Monosyllable	CVN	b4	0.99707	1	16	3.543	2.1
exp2	p38	24	F	1	6	70	0.814	chong3	CoN3	0	608	sy1	seg3	3-Segment	Monosyllable	CVN	b2	0.99795	1	16	3.543	2.1
exp2	p40	22	F	2	7	70	0.886	chong3	CoN3	0	608	sy1	seg3	3-Segment	Monosyllable	CVN	b2	0.99806	1	16	3.543	2.1
exp2	p23	23	F	3	8	141	0.749	chong3	CoN3	0	608	sy1	seg3	3-Segment	Monosyllable	CVN	b4	0.99717	1	16	3.543	2.1
exp2	p33	26	F	1	6	28	0.993	chong3	CoN3	0	608	sy1	seg3	3-Segment	Monosyllable	CVN	b1	NA	1	16	3.543	2.1
exp2	p27	23	F	1	8	23	0.971	chong3	CoN3	0	608	sy1	seg3	3-Segment	Monosyllable	CVN	b1	NA	1	16	3.543	2.1
exp2	p19	26	F	3	8	76	0.821	chong3	CoN3	0	608	sy1	seg3	3-Segment	Monosyllable	CVN	b2	0.99774	1	16	3.543	2.1
exp2	p21	21	F	3	5	141	0.854	chong3	CoN3	0	608	sy1	seg3	3-Segment	Monosyllable	CVN	b4	0.99687	1	16	3.543	2.1
exp2	p41	26	F	1	6	21	1.4	chong3	CoN3	0	608	sy1	seg3	3-Segment	Monosyllable	CVN	b1	NA	1	16	3.543	2.1
exp2	p31	38	F	2	6	28	0.795	chong3	CoN3	0	608	sy1	seg3	3-Segment	Monosyllable	CVN	b1	NA	1	16	3.543	2.1
exp2	p18	19	F	2	6	76	1.14	chong3	CoN3	0	608	sy1	seg3	3-Segment	Monosyllable	CVN	b2	NA	1	16	3.543	2.1
exp2	p42	20	F	1	7	21	0.821	chong3	CoN3	0	608	sy1	seg3	3-Segment	Monosyllable	CVN	b1	NA	1	16	3.543	2.1
exp2	p45	23	F	2	7	52	0.958	chong3	CoN3	0	608	sy1	seg3	3-Segment	Monosyllable	CVN	b2	0.99762	1	16	3.543	2.1
exp2	p20	23	M	2	7	19	0.952	chong3	CoN3	0	608	sy1	seg3	3-Segment	Monosyllable	CVN	b1	NA	1	16	3.543	2.1
exp2	p17	23	M	3	5	76	0.968	chong3	CoN3	0	608	sy1	seg3	3-Segment	Monosyllable	CVN	b2	0.99809	1	16	3.543	2.1
exp2	p32	26	F	2	5	28	0.832	chong3	CoN3	0	608	sy1	seg3	3-Segment	Monosyllable	CVN	b1	NA	1	16	3.543	2.1
exp2	p37	20	F	3	8	70	0.895	chong3	CoN3	0	608	sy1	seg3	3-Segment	Monosyllable	CVN	b2	0.99788	1	16	3.543	2.1
exp2	p12	26	M	2	6	19	0.822	chong3	CoN3	0	608	sy1	seg3	3-Segment	Monosyllable	CVN	b1	NA	1	16	3.543	2.1
exp1	p18	21	F	3	6	33	0.998	chu3 li3	Cu3li3	0	772	sy2	seg4	4-Segment	Disyllable	CV CV	NA	NA	1	1	1.114	3.813
exp1	p24	19	M	1	7	20	0.914	chu3 li3	Cu3li3	0	772	sy2	seg4	4-Segment	Disyllable	CV CV	NA	NA	1	1	1.114	3.813
exp1	p31	18	F	1	7	7	0.898	chu3 li3	Cu3li3	0	772	sy2	seg4	4-Segment	Disyllable	CV CV	NA	NA	1	1	1.114	3.813
exp1	p10	20	F	2	8	7	0.827	chu3 li3	Cu3li3	0	772	sy2	seg4	4-Segment	Disyllable	CV CV	NA	NA	1	1	1.114	3.813
exp1	p30	35	M	3	6	52	0.991	chu3 li3	Cu3li3	0	772	sy2	seg4	4-Segment	Disyllable	CV CV	NA	NA	1	1	1.114	3.813
exp1	p01	27	F	2	6	125	1.161	chu3 li3	Cu3li3	0	772	sy2	seg4	4-Segment	Disyllable	CV CV	NA	NA	1	1	1.114	3.813
exp1	p23	19	M	3	6	39	0.99	chu3 li3	Cu3li3	0	772	sy2	seg4	4-Segment	Disyllable	CV CV	NA	NA	1	1	1.114	3.813
exp1	p32	24	F	3	6	73	0.977	chu3 li3	Cu3li3	0	772	sy2	seg4	4-Segment	Disyllable	CV CV	NA	NA	1	1	1.114	3.813
exp1	p05	19	M	2	7	69	0.96	chu3 li3	Cu3li3	0	772	sy2	seg4	4-Segment	Disyllable	CV CV	NA	NA	1	1	1.114	3.813
exp1	p13	19	F	1	8	46	0.923	chu3 li3	Cu3li3	0	772	sy2	seg4	4-Segment	Disyllable	CV CV	NA	NA	1	1	1.114	3.813
exp1	p03	25	F	2	9	125	0.842	chu3 li3	Cu3li3	0	772	sy2	seg4	4-Segment	Disyllable	CV CV	NA	NA	1	1	1.114	3.813
exp1	p20	23	F	1	5	33	1.342	chu3 li3	Cu3li3	0	772	sy2	seg4	4-Segment	Disyllable	CV CV	NA	NA	1	1	1.114	3.813
exp1	p28	21	M	2	8	130	0.835	chu3 li3	Cu3li3	0	772	sy2	seg4	4-Segment	Disyllable	CV CV	NA	NA	1	1	1.114	3.813
exp1	p06	22	F	6	8	52	1.043	chu3 li3	Cu3li3	0	772	sy2	seg4	4-Segment	Disyllable	CV CV	NA	NA	1	1	1.114	3.813
exp1	p04	19	M	2	5	69	0.983	chu3 li3	Cu3li3	0	772	sy2	seg4	4-Segment	Disyllable	CV CV	NA	NA	1	1	1.114	3.813
exp1	p29	20	F	3	8	69	0.946	chu3 li3	Cu3li3	0	772	sy2	seg4	4-Segment	Disyllable	CV CV	NA	NA	1	1	1.114	3.813
exp1	p12	21	F	2	8	46	0.955	chu3 li3	Cu3li3	0	772	sy2	seg4	4-Segment	Disyllable	CV CV	NA	NA	1	1	1.114	3.813
exp1	p08	23	F	2	7	73	0.959	chu3 li3	Cu3li3	0	772	sy2	seg4	4-Segment	Disyllable	CV CV	NA	NA	1	1	1.114	3.813
exp1	p11	22	F	3	7	7	0.953	chu3 li3	Cu3li3	0	772	sy2	seg4	4-Segment	Disyllable	CV CV	NA	NA	1	1	1.114	3.813
exp1	p16	19	F	1	8	130	0.883	chu3 li3	Cu3li3	0	772	sy2	seg4	4-Segment	Disyllable	CV CV	NA	NA	1	1	1.114	3.813
exp1	p34	28	M	2	5	130	1.36	chu3 li3	Cu3li3	0	772	sy2	seg4	4-Segment	Disyllable	CV CV	NA	NA	1	1	1.114	3.813
exp1	p19	20	M	2	6	139	0.953	chu3 li3	Cu3li3	0	772	sy2	seg4	4-Segment	Disyllable	CV CV	NA	NA	1	1	1.114	3.813
exp1	p07	24	F	3	6	52	0.897	chu3 li3	Cu3li3	0	772	sy2	seg4	4-Segment	Disyllable	CV CV	NA	NA	1	1	1.114	3.813
exp1	p33	20	F	2	1	46	1.094	chu3 li3	Cu3li3	0	772	sy2	seg4	4-Segment	Disyllable	CV CV	NA	NA	1	1	1.114	3.813
exp1	p17	20	F	2	8	130	1.199	chu3 li3	Cu3li3	0	772	sy2	seg4	4-Segment	Disyllable	CV CV	NA	NA	1	1	1.114	3.813
exp1	p14	24	F	2	6	7	0.552	chu3 li3	Cu3li3	0	772	sy2	seg4	4-Segment	Disyllable	CV CV	NA	NA	1	1	1.114	3.813
exp1	p21	22	F	1	8	139	0.826	chu3 li3	Cu3li3	0	772	sy2	seg4	4-Segment	Disyllable	CV CV	NA	NA	1	1	1.114	3.813
exp1	p02	19	M	2	7	125	1.031	chu3 li3	Cu3li3	0	772	sy2	seg4	4-Segment	Disyllable	CV CV	NA	NA	1	1	1.114	3.813
exp1	p15	18	F	3	8	7	1.056	chu3 li3	Cu3li3	0	772	sy2	seg4	4-Segment	Disyllable	CV CV	NA	NA	1	1	1.114	3.813
exp1	p25	23	M	2	8	39	1.027	chu3 li3	Cu3li3	0	772	sy2	seg4	4-Segment	Disyllable	CV CV	NA	NA	1	1	1.114	3.813
exp1	p26	20	M	3	5	20	0.816	chu3 li3	Cu3li3	0	772	sy2	seg4	4-Segment	Disyllable	CV CV	NA	NA	1	1	1.114	3.813
exp1	p27	29	M	2	9	130	1.062	chu3 li3	Cu3li3	0	772	sy2	seg4	4-Segment	Disyllable	CV CV	NA	NA	1	1	1.114	3.813
exp1	p09	24	F	1	5	73	0.94	chu3 li3	Cu3li3	0	772	sy2	seg4	4-Segment	Disyllable	CV CV	NA	NA	1	1	1.114	3.813
exp3	p22	26	M	1	7	48	1.199	chu3 li3	Cu3li3	chu3di3	772	sy2	seg4	4-Segment	Disyllable	CV CV	b2	NA	1	1	1.114	3.813
exp3	p01	25	F	3	7	95	1.02	chu3 li3	Cu3li3	0	772	sy2	seg4	4-Segment	Disyllable	CV CV	b3	NA	1	1	1.114	3.813
exp3	p02	24	F	1	7	120	0.928	chu3 li3	Cu3li3	0	772	sy2	seg4	4-Segment	Disyllable	CV CV	b4	NA	1	1	1.114	3.813
exp3	p03	34	M	2	7	134	1.273	chu3 li3	Cu3li3	0	772	sy2	seg4	4-Segment	Disyllable	CV CV	b4	NA	1	1	1.114	3.813
exp3	p04	28	F	2	7	125	1.006	chu3 li3	Cu3li3	0	772	sy2	seg4	4-Segment	Disyllable	CV CV	b4	NA	1	1	1.114	3.813
exp3	p05	28	F	3	6	117	1.035	chu3 li3	Cu3li3	0	772	sy2	seg4	4-Segment	Disyllable	CV CV	b4	NA	1	1	1.114	3.813
exp3	p06	27	M	2	6	106	1.158	chu3 li3	Cu3li3	0	772	sy2	seg4	4-Segment	Disyllable	CV CV	b3	NA	1	1	1.114	3.813
exp3	p07	26	M	1	6	96	1.026	chu3 li3	Cu3li3	0	772	sy2	seg4	4-Segment	Disyllable	CV CV	b3	NA	1	1	1.114	3.813
exp3	p08	24	F	1	6	19	0.89	chu3 li3	Cu3li3	0	772	sy2	seg4	4-Segment	Disyllable	CV CV	b1	NA	1	1	1.114	3.813
exp3	p09	25	F	1	7	77	0.741	chu3 li3	Cu3li3	0	772	sy2	seg4	4-Segment	Disyllable	CV CV	b3	NA	1	1	1.114	3.813
exp3	p10	21	F	2	7	116	0.895	chu3 li3	Cu3li3	0	772	sy2	seg4	4-Segment	Disyllable	CV CV	b4	NA	1	1	1.114	3.813
exp3	p11	33	M	1	5	95	0.965	chu3 li3	Cu3li3	0	772	sy2	seg4	4-Segment	Disyllable	CV CV	b3	NA	1	1	1.114	3.813
exp3	p12	28	F	2	6	12	0.737	chu3 li3	Cu3li3	0	772	sy2	seg4	4-Segment	Disyllable	CV CV	b1	NA	1	1	1.114	3.813
exp3	p13	28	M	1	6	26	0.898	chu3 li3	Cu3li3	0	772	sy2	seg4	4-Segment	Disyllable	CV CV	b1	NA	1	1	1.114	3.813
exp3	p14	28	F	2	7	125	1.039	chu3 li3	Cu3li3	0	772	sy2	seg4	4-Segment	Disyllable	CV CV	b4	NA	1	1	1.114	3.813
exp3	p15	24	F	3	7	81	0.985	chu3 li3	Cu3li3	0	772	sy2	seg4	4-Segment	Disyllable	CV CV	b3	NA	1	1	1.114	3.813
exp3	p16	29	F	2	6	142	0.809	chu3 li3	Cu3li3	0	772	sy2	seg4	4-Segment	Disyllable	CV CV	b4	NA	1	1	1.114	3.813
exp3	p17	27	M	1	6	132	0.914	chu3 li3	Cu3li3	0	772	sy2	seg4	4-Segment	Disyllable	CV CV	b4	NA	1	1	1.114	3.813
exp3	p18	25	F	3	7	127	1.004	chu3 li3	Cu3li3	0	772	sy2	seg4	4-Segment	Disyllable	CV CV	b4	NA	1	1	1.114	3.813
exp3	p19	27	F	2	7	5	1.13	chu3 li3	Cu3li3	0	772	sy2	seg4	4-Segment	Disyllable	CV CV	b1	NA	1	1	1.114	3.813
exp3	p20	26	F	2	7	8	1.179	chu3 li3	Cu3li3	0	772	sy2	seg4	4-Segment	Disyllable	CV CV	b1	NA	1	1	1.114	3.813
exp3	p21	26	F	2	7	59	1.156	chu3 li3	Cu3li3	0	772	sy2	seg4	4-Segment	Disyllable	CV CV	b2	NA	1	1	1.114	3.813
exp3	p23	23	F	3	7	62	0.966	chu3 li3	Cu3li3	0	772	sy2	seg4	4-Segment	Disyllable	CV CV	b2	NA	1	1	1.114	3.813
exp3	p24	23	F	1	7	17	1.245	chu3 li3	Cu3li3	0	772	sy2	seg4	4-Segment	Disyllable	CV CV	b1	NA	1	1	1.114	3.813
exp3	p25	19	M	2	9	117	0.879	chu3 li3	Cu3li3	0	772	sy2	seg4	4-Segment	Disyllable	CV CV	b4	NA	1	1	1.114	3.813
exp3	p26	19	F	2	7	34	1.213	chu3 li3	Cu3li3	0	772	sy2	seg4	4-Segment	Disyllable	CV CV	b1	NA	1	1	1.114	3.813
exp3	p27	20	F	3	7	60	0.959	chu3 li3	Cu3li3	0	772	sy2	seg4	4-Segment	Disyllable	CV CV	b2	NA	1	1	1.114	3.813
exp3	p29	30	F	2	7	91	1.063	chu3 li3	Cu3li3	0	772	sy2	seg4	4-Segment	Disyllable	CV CV	b3	NA	1	1	1.114	3.813
exp3	p30	23	F	2	7	77	0.989	chu3 li3	Cu3li3	0	772	sy2	seg4	4-Segment	Disyllable	CV CV	b3	NA	1	1	1.114	3.813
exp3	p31	38	F	1	8	80	0.821	chu3 li3	Cu3li3	0	772	sy2	seg4	4-Segment	Disyllable	CV CV	b3	NA	1	1	1.114	3.813
exp3	p32	19	F	1	7	95	1.055	chu3 li3	Cu3li3	0	772	sy2	seg4	4-Segment	Disyllable	CV CV	b3	NA	1	1	1.114	3.813
exp3	p33	19	F	2	8	84	1.094	chu3 li3	Cu3li3	0	772	sy2	seg4	4-Segment	Disyllable	CV CV	b3	NA	1	1	1.114	3.813
exp3	p34	27	F	2	7	62	0.896	chu3 li3	Cu3li3	0	772	sy2	seg4	4-Segment	Disyllable	CV CV	b2	NA	1	1	1.114	3.813
exp3	p35	32	F	3	8	89	0.909	chu3 li3	Cu3li3	0	772	sy2	seg4	4-Segment	Disyllable	CV CV	b3	NA	1	1	1.114	3.813
exp3	p36	24	M	3	7	9	0.952	chu3 li3	Cu3li3	0	772	sy2	seg4	4-Segment	Disyllable	CV CV	b1	NA	1	1	1.114	3.813
exp2	p40	22	F	2	7	43	0.998	chu3 li3	Cu3li3	0	772	sy2	seg4	4-Segment	Disyllable	CV CV	b1	NA	1	1	1.114	3.813
exp2	p29	20	M	4	6	17	0.966	chu3 li3	Cu3li3	0	772	sy2	seg4	4-Segment	Disyllable	CV CV	b1	NA	1	1	1.114	3.813
exp2	p03	28	F	1	7	135	1.185	chu3 li3	Cu3li3	0	772	sy2	seg4	4-Segment	Disyllable	CV CV	b4	0.99639	1	1	1.114	3.813
exp2	p01	19	M	2	7	135	0.948	chu3 li3	Cu3li3	0	772	sy2	seg4	4-Segment	Disyllable	CV CV	b4	0.99634	1	1	1.114	3.813
exp2	p18	19	F	2	6	83	1.637	chu3 li3	Cu3li3	0	772	sy2	seg4	4-Segment	Disyllable	CV CV	b3	NA	1	1	1.114	3.813
exp2	p23	23	F	3	8	17	1.024	chu3 li3	Cu3li3	0	772	sy2	seg4	4-Segment	Disyllable	CV CV	b1	NA	1	1	1.114	3.813
exp2	p16	20	F	3	7	83	0.911	chu3 li3	Cu3li3	0	772	sy2	seg4	4-Segment	Disyllable	CV CV	b3	0.9977	1	1	1.114	3.813
exp2	p26	24	F	1	7	56	0.953	chu3 li3	Cu3li3	0	772	sy2	seg4	4-Segment	Disyllable	CV CV	b2	0.99776	1	1	1.114	3.813
exp2	p43	26	M	2	7	149	0.875	chu3 li3	Cu3li3	0	772	sy2	seg4	4-Segment	Disyllable	CV CV	b4	0.99753	1	1	1.114	3.813
exp2	p32	26	F	2	5	140	0.87	chu3 li3	Cu3li3	0	772	sy2	seg4	4-Segment	Disyllable	CV CV	b4	0.99703	1	1	1.114	3.813
exp2	p41	26	F	1	6	149	1.182	chu3 li3	Cu3li3	0	772	sy2	seg4	4-Segment	Disyllable	CV CV	b4	0.99787	1	1	1.114	3.813
exp2	p31	38	F	2	6	140	0.836	chu3 li3	Cu3li3	0	772	sy2	seg4	4-Segment	Disyllable	CV CV	b4	0.997	1	1	1.114	3.813
exp2	p22	22	F	2	7	17	1.126	chu3 li3	Cu3li3	0	772	sy2	seg4	4-Segment	Disyllable	CV CV	b1	NA	1	1	1.114	3.813
exp2	p06	21	F	3	8	79	1.138	chu3 li3	Cu3li3	0	772	sy2	seg4	4-Segment	Disyllable	CV CV	b2	0.99758	1	1	1.114	3.813
exp2	p12	26	M	2	6	62	0.928	chu3 li3	Cu3li3	0	772	sy2	seg4	4-Segment	Disyllable	CV CV	b2	0.99796	1	1	1.114	3.813
exp2	p37	20	F	3	8	43	1.072	chu3 li3	Cu3li3	0	772	sy2	seg4	4-Segment	Disyllable	CV CV	b1	NA	1	1	1.114	3.813
exp2	p04	24	F	1	5	135	0.997	chu3 li3	Cu3li3	0	772	sy2	seg4	4-Segment	Disyllable	CV CV	b4	0.99642	1	1	1.114	3.813
exp2	p34	26	M	2	6	140	1.062	chu3 li3	Cu3li3	0	772	sy2	seg4	4-Segment	Disyllable	CV CV	b4	0.99798	1	1	1.114	3.813
exp2	p36	31	M	2	8	17	1.229	chu3 li3	Cu3li3	0	772	sy2	seg4	4-Segment	Disyllable	CV CV	b1	NA	1	1	1.114	3.813
exp2	p07	26	F	3	7	79	1.121	chu3 li3	Cu3li3	0	772	sy2	seg4	4-Segment	Disyllable	CV CV	b2	0.99812	1	1	1.114	3.813
exp2	p13	28	M	2	6	62	1.094	chu3 li3	Cu3li3	0	772	sy2	seg4	4-Segment	Disyllable	CV CV	b2	0.99816	1	1	1.114	3.813
exp2	p33	26	F	1	6	140	1.112	chu3 li3	Cu3li3	0	772	sy2	seg4	4-Segment	Disyllable	CV CV	b4	0.9967	1	1	1.114	3.813
exp2	p30	23	F	2	8	17	0.999	chu3 li3	Cu3li3	0	772	sy2	seg4	4-Segment	Disyllable	CV CV	b1	NA	1	1	1.114	3.813
exp2	p15	23	F	1	7	83	0.957	chu3 li3	Cu3li3	0	772	sy2	seg4	4-Segment	Disyllable	CV CV	b3	0.99723	1	1	1.114	3.813
exp2	p09	19	M	2	7	79	0.841	chu3 li3	Cu3li3	0	772	sy2	seg4	4-Segment	Disyllable	CV CV	b2	0.99786	1	1	1.114	3.813
exp2	p45	23	F	2	7	49	1.01	chu3 li3	Cu3li3	0	772	sy2	seg4	4-Segment	Disyllable	CV CV	b2	0.99762	1	1	1.114	3.813
exp2	p08	19	M	3	7	79	0.897	chu3 li3	Cu3li3	0	772	sy2	seg4	4-Segment	Disyllable	CV CV	b2	0.99817	1	1	1.114	3.813
exp2	p42	20	F	1	7	149	1.09	chu3 li3	Cu3li3	0	772	sy2	seg4	4-Segment	Disyllable	CV CV	b4	0.99688	1	1	1.114	3.813
exp2	p21	21	F	3	5	17	1.044	chu3 li3	Cu3li3	0	772	sy2	seg4	4-Segment	Disyllable	CV CV	b1	NA	1	1	1.114	3.813
exp2	p44	23	F	2	8	149	1.208	chu3 li3	Cu3li3	0	772	sy2	seg4	4-Segment	Disyllable	CV CV	b4	0.99715	1	1	1.114	3.813
exp2	p25	23	M	2	6	56	0.971	chu3 li3	Cu3li3	0	772	sy2	seg4	4-Segment	Disyllable	CV CV	b2	0.99797	1	1	1.114	3.813
exp2	p19	26	F	3	8	83	0.995	chu3 li3	Cu3li3	0	772	sy2	seg4	4-Segment	Disyllable	CV CV	b3	0.99692	1	1	1.114	3.813
exp2	p17	23	M	3	5	83	1.21	chu3 li3	Cu3li3	0	772	sy2	seg4	4-Segment	Disyllable	CV CV	b3	0.99789	1	1	1.114	3.813
exp2	p10	28	M	2	7	62	1.077	chu3 li3	Cu3li3	0	772	sy2	seg4	4-Segment	Disyllable	CV CV	b2	0.99781	1	1	1.114	3.813
exp2	p20	23	M	2	7	62	1.13	chu3 li3	Cu3li3	0	772	sy2	seg4	4-Segment	Disyllable	CV CV	b2	0.99807	1	1	1.114	3.813
exp2	p39	22	M	2	8	43	1.064	chu3 li3	Cu3li3	0	772	sy2	seg4	4-Segment	Disyllable	CV CV	b1	NA	1	1	1.114	3.813
exp2	p46	29	F	2	7	49	1.368	chu3 li3	Cu3li3	0	772	sy2	seg4	4-Segment	Disyllable	CV CV	b2	0.9981	1	1	1.114	3.813
exp2	p02	26	M	3	8	135	0.934	chu3 li3	Cu3li3	0	772	sy2	seg4	4-Segment	Disyllable	CV CV	b4	0.99631	1	1	1.114	3.813
exp2	p28	23	F	1	8	56	1.003	chu3 li3	Cu3li3	0	772	sy2	seg4	4-Segment	Disyllable	CV CV	b2	0.99771	1	1	1.114	3.813
exp2	p38	24	F	1	6	43	1.084	chu3 li3	Cu3li3	0	772	sy2	seg4	4-Segment	Disyllable	CV CV	b1	NA	1	1	1.114	3.813
exp2	p11	25	M	3	8	79	0.903	chu3 li3	Cu3li3	0	772	sy2	seg4	4-Segment	Disyllable	CV CV	b2	0.998	1	1	1.114	3.813
exp2	p05	23	F	3	7	135	0.939	chu3 li3	Cu3li3	0	772	sy2	seg4	4-Segment	Disyllable	CV CV	b4	0.99636	1	1	1.114	3.813
exp2	p35	23	F	2	6	17	0.962	chu3 li3	Cu3li3	0	772	sy2	seg4	4-Segment	Disyllable	CV CV	b1	NA	1	1	1.114	3.813
exp2	p27	23	F	1	8	56	1.006	chu3 li3	Cu3li3	0	772	sy2	seg4	4-Segment	Disyllable	CV CV	b2	0.9978	1	1	1.114	3.813
exp2	p24	21	M	2	6	17	1.136	chu3 li3	Cu3li3	0	772	sy2	seg4	4-Segment	Disyllable	CV CV	b1	NA	1	1	1.114	3.813
exp2	p14	38	M	2	5	62	1.093	chu3 li3	Cu3li3	0	772	sy2	seg4	4-Segment	Disyllable	CV CV	b2	0.99808	1	1	1.114	3.813
exp2	p47	23	F	1	7	49	1.176	chu3 li3	Cu3li3	0	772	sy2	seg4	4-Segment	Disyllable	CV CV	b2	0.99744	1	1	1.114	3.813
exp1	p26	20	M	3	5	133	0.619	chu3 yu2	Cu3y2	0	623	sy2	seg3	3-Segment	Disyllable	CV V	NA	NA	1	3	3.095	3.037
exp1	p12	21	F	2	8	68	0.55	chu3 yu2	Cu3y2	0	623	sy2	seg3	3-Segment	Disyllable	CV V	NA	NA	1	3	3.095	3.037
exp1	p13	19	F	1	8	68	0.973	chu3 yu2	Cu3y2	0	623	sy2	seg3	3-Segment	Disyllable	CV V	NA	NA	1	3	3.095	3.037
exp1	p06	22	F	6	8	40	0.624	chu3 yu2	Cu3y2	0	623	sy2	seg3	3-Segment	Disyllable	CV V	NA	NA	1	3	3.095	3.037
exp1	p10	20	F	2	8	57	0.805	chu3 yu2	Cu3y2	0	623	sy2	seg3	3-Segment	Disyllable	CV V	NA	NA	1	3	3.095	3.037
exp1	p28	21	M	2	8	128	0.792	chu3 yu2	Cu3y2	0	623	sy2	seg3	3-Segment	Disyllable	CV V	NA	NA	1	3	3.095	3.037
exp1	p03	25	F	2	9	55	0.698	chu3 yu2	Cu3y2	0	623	sy2	seg3	3-Segment	Disyllable	CV V	NA	NA	1	3	3.095	3.037
exp1	p27	29	M	2	9	128	0.856	chu3 yu2	Cu3y2	0	623	sy2	seg3	3-Segment	Disyllable	CV V	NA	NA	1	3	3.095	3.037
exp1	p14	24	F	2	6	82	0.46	chu3 yu2	Cu3y2	0	623	sy2	seg3	3-Segment	Disyllable	CV V	NA	NA	1	3	3.095	3.037
exp1	p32	24	F	3	6	29	0.865	chu3 yu2	Cu3y2	0	623	sy2	seg3	3-Segment	Disyllable	CV V	NA	NA	1	3	3.095	3.037
exp1	p25	23	M	2	8	32	0.823	chu3 yu2	Cu3y2	0	623	sy2	seg3	3-Segment	Disyllable	CV V	NA	NA	1	3	3.095	3.037
exp1	p21	22	F	1	8	42	0.755	chu3 yu2	Cu3y2	0	623	sy2	seg3	3-Segment	Disyllable	CV V	NA	NA	1	3	3.095	3.037
exp1	p16	19	F	1	8	142	0.769	chu3 yu2	Cu3y2	0	623	sy2	seg3	3-Segment	Disyllable	CV V	NA	NA	1	3	3.095	3.037
exp1	p24	19	M	1	7	133	0.764	chu3 yu2	Cu3y2	0	623	sy2	seg3	3-Segment	Disyllable	CV V	NA	NA	1	3	3.095	3.037
exp1	p31	18	F	1	7	57	0.712	chu3 yu2	Cu3y2	0	623	sy2	seg3	3-Segment	Disyllable	CV V	NA	NA	1	3	3.095	3.037
exp1	p05	19	M	2	7	47	0.881	chu3 yu2	Cu3y2	0	623	sy2	seg3	3-Segment	Disyllable	CV V	NA	NA	1	3	3.095	3.037
exp1	p09	24	F	1	5	29	0.682	chu3 yu2	Cu3y2	0	623	sy2	seg3	3-Segment	Disyllable	CV V	NA	NA	1	3	3.095	3.037
exp1	p08	23	F	2	7	29	0.842	chu3 yu2	Cu3y2	0	623	sy2	seg3	3-Segment	Disyllable	CV V	NA	NA	1	3	3.095	3.037
exp1	p04	19	M	2	5	47	0.779	chu3 yu2	Cu3y2	0	623	sy2	seg3	3-Segment	Disyllable	CV V	NA	NA	1	3	3.095	3.037
exp1	p11	22	F	3	7	57	0.901	chu3 yu2	Cu3y2	0	623	sy2	seg3	3-Segment	Disyllable	CV V	NA	NA	1	3	3.095	3.037
exp1	p15	18	F	3	8	82	1.08	chu3 yu2	Cu3y2	0	623	sy2	seg3	3-Segment	Disyllable	CV V	NA	NA	1	3	3.095	3.037
exp1	p29	20	F	3	8	47	0.908	chu3 yu2	Cu3y2	0	623	sy2	seg3	3-Segment	Disyllable	CV V	NA	NA	1	3	3.095	3.037
exp1	p02	19	M	2	7	55	0.738	chu3 yu2	Cu3y2	0	623	sy2	seg3	3-Segment	Disyllable	CV V	NA	NA	1	3	3.095	3.037
exp1	p23	19	M	3	6	32	0.916	chu3 yu2	Cu3y2	0	623	sy2	seg3	3-Segment	Disyllable	CV V	NA	NA	1	3	3.095	3.037
exp1	p34	28	M	2	5	142	0.988	chu3 yu2	Cu3y2	0	623	sy2	seg3	3-Segment	Disyllable	CV V	NA	NA	1	3	3.095	3.037
exp1	p18	21	F	3	6	111	0.968	chu3 yu2	Cu3y2	0	623	sy2	seg3	3-Segment	Disyllable	CV V	NA	NA	1	3	3.095	3.037
exp1	p33	20	F	2	1	68	0.898	chu3 yu2	Cu3y2	0	623	sy2	seg3	3-Segment	Disyllable	CV V	NA	NA	1	3	3.095	3.037
exp1	p20	23	F	1	5	111	1.107	chu3 yu2	Cu3y2	0	623	sy2	seg3	3-Segment	Disyllable	CV V	NA	NA	1	3	3.095	3.037
exp1	p30	35	M	3	6	40	0.958	chu3 yu2	Cu3y2	0	623	sy2	seg3	3-Segment	Disyllable	CV V	NA	NA	1	3	3.095	3.037
exp1	p07	24	F	3	6	40	0.952	chu3 yu2	Cu3y2	0	623	sy2	seg3	3-Segment	Disyllable	CV V	NA	NA	1	3	3.095	3.037
exp1	p01	27	F	2	6	55	0.952	chu3 yu2	Cu3y2	0	623	sy2	seg3	3-Segment	Disyllable	CV V	NA	NA	1	3	3.095	3.037
exp1	p17	20	F	2	8	142	1.029	chu3 yu2	Cu3y2	0	623	sy2	seg3	3-Segment	Disyllable	CV V	NA	NA	1	3	3.095	3.037
exp1	p19	20	M	2	6	42	0.983	chu3 yu2	Cu3y2	0	623	sy2	seg3	3-Segment	Disyllable	CV V	NA	NA	1	3	3.095	3.037
exp3	p01	25	F	3	7	126	0.574	chu3 yu2	Cu3y2	0	623	sy2	seg3	3-Segment	Disyllable	CV V	b4	NA	1	3	3.095	3.037
exp3	p02	24	F	1	7	49	0.896	chu3 yu2	Cu3y2	0	623	sy2	seg3	3-Segment	Disyllable	CV V	b2	NA	1	3	3.095	3.037
exp3	p03	34	M	2	7	17	1.014	chu3 yu2	Cu3y2	0	623	sy2	seg3	3-Segment	Disyllable	CV V	b1	NA	1	3	3.095	3.037
exp3	p04	28	F	2	7	102	1.046	chu3 yu2	Cu3y2	0	623	sy2	seg3	3-Segment	Disyllable	CV V	b3	NA	1	3	3.095	3.037
exp3	p05	28	F	3	6	58	0.88	chu3 yu2	Cu3y2	0	623	sy2	seg3	3-Segment	Disyllable	CV V	b2	NA	1	3	3.095	3.037
exp3	p06	27	M	2	6	72	0.963	chu3 yu2	Cu3y2	0	623	sy2	seg3	3-Segment	Disyllable	CV V	b2	NA	1	3	3.095	3.037
exp3	p07	26	M	1	6	63	1.13	chu3 yu2	Cu3y2	0	623	sy2	seg3	3-Segment	Disyllable	CV V	b2	NA	1	3	3.095	3.037
exp3	p08	24	F	1	6	48	0.77	chu3 yu2	Cu3y2	0	623	sy2	seg3	3-Segment	Disyllable	CV V	b2	NA	1	3	3.095	3.037
exp3	p09	25	F	1	7	62	0.843	chu3 yu2	Cu3y2	0	623	sy2	seg3	3-Segment	Disyllable	CV V	b2	NA	1	3	3.095	3.037
exp3	p10	21	F	2	7	97	0.846	chu3 yu2	Cu3y2	0	623	sy2	seg3	3-Segment	Disyllable	CV V	b3	NA	1	3	3.095	3.037
exp3	p11	33	M	1	5	54	0.757	chu3 yu2	Cu3y2	0	623	sy2	seg3	3-Segment	Disyllable	CV V	b2	NA	1	3	3.095	3.037
exp3	p12	28	F	2	6	49	0.565	chu3 yu2	Cu3y2	0	623	sy2	seg3	3-Segment	Disyllable	CV V	b2	NA	1	3	3.095	3.037
exp3	p13	28	M	1	6	125	0.768	chu3 yu2	Cu3y2	0	623	sy2	seg3	3-Segment	Disyllable	CV V	b4	NA	1	3	3.095	3.037
exp3	p14	28	F	2	7	102	0.749	chu3 yu2	Cu3y2	0	623	sy2	seg3	3-Segment	Disyllable	CV V	b3	NA	1	3	3.095	3.037
exp3	p15	24	F	3	7	22	0.812	chu3 yu2	Cu3y2	0	623	sy2	seg3	3-Segment	Disyllable	CV V	b1	NA	1	3	3.095	3.037
exp3	p16	29	F	2	6	36	0.765	chu3 yu2	Cu3y2	0	623	sy2	seg3	3-Segment	Disyllable	CV V	b1	NA	1	3	3.095	3.037
exp3	p17	27	M	1	6	27	0.801	chu3 yu2	Cu3y2	0	623	sy2	seg3	3-Segment	Disyllable	CV V	b1	NA	1	3	3.095	3.037
exp3	p18	25	F	3	7	12	0.864	chu3 yu2	Cu3y2	0	623	sy2	seg3	3-Segment	Disyllable	CV V	b1	NA	1	3	3.095	3.037
exp3	p19	27	F	2	7	98	0.967	chu3 yu2	Cu3y2	0	623	sy2	seg3	3-Segment	Disyllable	CV V	b3	NA	1	3	3.095	3.037
exp3	p20	26	F	2	7	133	1.145	chu3 yu2	Cu3y2	0	623	sy2	seg3	3-Segment	Disyllable	CV V	b4	NA	1	3	3.095	3.037
exp3	p21	26	F	2	7	126	0.988	chu3 yu2	Cu3y2	0	623	sy2	seg3	3-Segment	Disyllable	CV V	b4	NA	1	3	3.095	3.037
exp3	p22	26	M	1	7	85	0.909	chu3 yu2	Cu3y2	0	623	sy2	seg3	3-Segment	Disyllable	CV V	b3	NA	1	3	3.095	3.037
exp3	p23	23	F	3	7	17	0.868	chu3 yu2	Cu3y2	0	623	sy2	seg3	3-Segment	Disyllable	CV V	b1	NA	1	3	3.095	3.037
exp3	p24	23	F	1	7	102	0.876	chu3 yu2	Cu3y2	0	623	sy2	seg3	3-Segment	Disyllable	CV V	b3	NA	1	3	3.095	3.037
exp3	p25	19	M	2	9	94	0.874	chu3 yu2	Cu3y2	0	623	sy2	seg3	3-Segment	Disyllable	CV V	b3	NA	1	3	3.095	3.037
exp3	p26	19	F	2	7	72	1.019	chu3 yu2	Cu3y2	0	623	sy2	seg3	3-Segment	Disyllable	CV V	b2	NA	1	3	3.095	3.037
exp3	p27	20	F	3	7	135	0.826	chu3 yu2	Cu3y2	0	623	sy2	seg3	3-Segment	Disyllable	CV V	b4	NA	1	3	3.095	3.037
exp3	p29	30	F	2	7	48	0.884	chu3 yu2	Cu3y2	0	623	sy2	seg3	3-Segment	Disyllable	CV V	b2	NA	1	3	3.095	3.037
exp3	p30	23	F	2	7	134	0.882	chu3 yu2	Cu3y2	0	623	sy2	seg3	3-Segment	Disyllable	CV V	b4	NA	1	3	3.095	3.037
exp3	p31	38	F	1	8	25	0.775	chu3 yu2	Cu3y2	0	623	sy2	seg3	3-Segment	Disyllable	CV V	b1	NA	1	3	3.095	3.037
exp3	p32	19	F	1	7	18	0.926	chu3 yu2	Cu3y2	0	623	sy2	seg3	3-Segment	Disyllable	CV V	b1	NA	1	3	3.095	3.037
exp3	p33	19	F	2	8	13	0.938	chu3 yu2	Cu3y2	0	623	sy2	seg3	3-Segment	Disyllable	CV V	b1	NA	1	3	3.095	3.037
exp3	p34	27	F	2	7	125	0.749	chu3 yu2	Cu3y2	0	623	sy2	seg3	3-Segment	Disyllable	CV V	b4	NA	1	3	3.095	3.037
exp3	p35	32	F	3	8	138	0.755	chu3 yu2	Cu3y2	0	623	sy2	seg3	3-Segment	Disyllable	CV V	b4	NA	1	3	3.095	3.037
exp3	p36	24	M	3	7	94	0.728	chu3 yu2	Cu3y2	0	623	sy2	seg3	3-Segment	Disyllable	CV V	b3	NA	1	3	3.095	3.037
exp2	p33	26	F	1	6	152	0.908	chu3 yu2	Cu3y2	0	623	sy2	seg3	3-Segment	Disyllable	CV V	b4	0.9967	1	3	3.095	3.037
exp2	p05	23	F	3	7	65	0.903	chu3 yu2	Cu3y2	0	623	sy2	seg3	3-Segment	Disyllable	CV V	b2	0.99812	1	3	3.095	3.037
exp2	p21	21	F	3	5	67	1.01	chu3 yu2	Cu3y2	0	623	sy2	seg3	3-Segment	Disyllable	CV V	b2	0.99765	1	3	3.095	3.037
exp2	p30	23	F	2	8	92	0.744	chu3 yu2	Cu3y2	0	623	sy2	seg3	3-Segment	Disyllable	CV V	b3	0.99649	1	3	3.095	3.037
exp2	p34	26	M	2	6	152	0.877	chu3 yu2	Cu3y2	0	623	sy2	seg3	3-Segment	Disyllable	CV V	b4	0.99798	1	3	3.095	3.037
exp2	p22	22	F	2	7	67	1.065	chu3 yu2	Cu3y2	0	623	sy2	seg3	3-Segment	Disyllable	CV V	b2	0.99732	1	3	3.095	3.037
exp2	p03	28	F	1	7	65	1.087	chu3 yu2	Cu3y2	0	623	sy2	seg3	3-Segment	Disyllable	CV V	b2	0.99815	1	3	3.095	3.037
exp2	p43	26	M	2	7	52	0.983	chu3 yu2	Cu3y2	0	623	sy2	seg3	3-Segment	Disyllable	CV V	b2	0.99754	1	3	3.095	3.037
exp2	p04	24	F	1	5	65	1.012	chu3 yu2	Cu3y2	0	623	sy2	seg3	3-Segment	Disyllable	CV V	b2	0.99793	1	3	3.095	3.037
exp2	p07	26	F	3	7	57	1.031	chu3 yu2	Cu3y2	0	623	sy2	seg3	3-Segment	Disyllable	CV V	b2	0.99812	1	3	3.095	3.037
exp2	p09	19	M	2	7	57	0.808	chu3 yu2	Cu3y2	0	623	sy2	seg3	3-Segment	Disyllable	CV V	b2	0.99786	1	3	3.095	3.037
exp2	p08	19	M	3	7	57	0.799	chu3 yu2	Cu3y2	0	623	sy2	seg3	3-Segment	Disyllable	CV V	b2	0.99817	1	3	3.095	3.037
exp2	p02	26	M	3	8	65	0.881	chu3 yu2	Cu3y2	0	623	sy2	seg3	3-Segment	Disyllable	CV V	b2	0.99804	1	3	3.095	3.037
exp2	p16	20	F	3	7	39	0.873	chu3 yu2	Cu3y2	0	623	sy2	seg3	3-Segment	Disyllable	CV V	b1	NA	1	3	3.095	3.037
exp2	p13	28	M	2	6	50	0.944	chu3 yu2	Cu3y2	0	623	sy2	seg3	3-Segment	Disyllable	CV V	b2	0.99816	1	3	3.095	3.037
exp2	p26	24	F	1	7	78	0.785	chu3 yu2	Cu3y2	0	623	sy2	seg3	3-Segment	Disyllable	CV V	b2	0.99776	1	3	3.095	3.037
exp2	p47	23	F	1	7	42	1.186	chu3 yu2	Cu3y2	0	623	sy2	seg3	3-Segment	Disyllable	CV V	b1	NA	1	3	3.095	3.037
exp2	p24	21	M	2	6	67	1.08	chu3 yu2	Cu3y2	0	623	sy2	seg3	3-Segment	Disyllable	CV V	b2	0.99777	1	3	3.095	3.037
exp2	p29	20	M	4	6	92	0.878	chu3 yu2	Cu3y2	0	623	sy2	seg3	3-Segment	Disyllable	CV V	b3	0.99674	1	3	3.095	3.037
exp2	p31	38	F	2	6	152	0.79	chu3 yu2	Cu3y2	0	623	sy2	seg3	3-Segment	Disyllable	CV V	b4	0.997	1	3	3.095	3.037
exp2	p32	26	F	2	5	152	0.702	chu3 yu2	Cu3y2	0	623	sy2	seg3	3-Segment	Disyllable	CV V	b4	0.99703	1	3	3.095	3.037
exp2	p20	23	M	2	7	50	0.877	chu3 yu2	Cu3y2	0	623	sy2	seg3	3-Segment	Disyllable	CV V	b2	0.99807	1	3	3.095	3.037
exp2	p37	20	F	3	8	121	0.968	chu3 yu2	Cu3y2	0	623	sy2	seg3	3-Segment	Disyllable	CV V	b4	0.99801	1	3	3.095	3.037
exp2	p25	23	M	2	6	78	0.93	chu3 yu2	Cu3y2	0	623	sy2	seg3	3-Segment	Disyllable	CV V	b2	0.99797	1	3	3.095	3.037
exp2	p38	24	F	1	6	121	1.044	chu3 yu2	Cu3y2	0	623	sy2	seg3	3-Segment	Disyllable	CV V	b4	0.99672	1	3	3.095	3.037
exp2	p44	23	F	2	8	52	1.105	chu3 yu2	Cu3y2	0	623	sy2	seg3	3-Segment	Disyllable	CV V	b2	0.99746	1	3	3.095	3.037
exp2	p46	29	F	2	7	42	1.066	chu3 yu2	Cu3y2	0	623	sy2	seg3	3-Segment	Disyllable	CV V	b1	NA	1	3	3.095	3.037
exp2	p41	26	F	1	6	52	1.543	chu3 yu2	Cu3y2	0	623	sy2	seg3	3-Segment	Disyllable	CV V	b2	0.99794	1	3	3.095	3.037
exp2	p12	26	M	2	6	50	0.756	chu3 yu2	Cu3y2	0	623	sy2	seg3	3-Segment	Disyllable	CV V	b2	0.99796	1	3	3.095	3.037
exp2	p27	23	F	1	8	78	0.963	chu3 yu2	Cu3y2	0	623	sy2	seg3	3-Segment	Disyllable	CV V	b2	0.9978	1	3	3.095	3.037
exp2	p40	22	F	2	7	121	1.286	chu3 yu2	Cu3y2	0	623	sy2	seg3	3-Segment	Disyllable	CV V	b4	0.99785	1	3	3.095	3.037
exp2	p01	19	M	2	7	65	1.028	chu3 yu2	Cu3y2	0	623	sy2	seg3	3-Segment	Disyllable	CV V	b2	0.99789	1	3	3.095	3.037
exp2	p10	28	M	2	7	50	0.98	chu3 yu2	Cu3y2	0	623	sy2	seg3	3-Segment	Disyllable	CV V	b2	0.99781	1	3	3.095	3.037
exp2	p39	22	M	2	8	121	1.029	chu3 yu2	Cu3y2	0	623	sy2	seg3	3-Segment	Disyllable	CV V	b4	0.99805	1	3	3.095	3.037
exp2	p11	25	M	3	8	57	0.774	chu3 yu2	Cu3y2	0	623	sy2	seg3	3-Segment	Disyllable	CV V	b2	0.998	1	3	3.095	3.037
exp2	p45	23	F	2	7	42	0.818	chu3 yu2	Cu3y2	0	623	sy2	seg3	3-Segment	Disyllable	CV V	b1	NA	1	3	3.095	3.037
exp2	p23	23	F	3	8	67	0.79	chu3 yu2	Cu3y2	0	623	sy2	seg3	3-Segment	Disyllable	CV V	b2	0.99739	1	3	3.095	3.037
exp2	p17	23	M	3	5	39	0.953	chu3 yu2	Cu3y2	0	623	sy2	seg3	3-Segment	Disyllable	CV V	b1	NA	1	3	3.095	3.037
exp2	p18	19	F	2	6	39	1.155	chu3 yu2	Cu3y2	0	623	sy2	seg3	3-Segment	Disyllable	CV V	b1	NA	1	3	3.095	3.037
exp2	p19	26	F	3	8	39	0.889	chu3 yu2	Cu3y2	0	623	sy2	seg3	3-Segment	Disyllable	CV V	b1	NA	1	3	3.095	3.037
exp2	p36	31	M	2	8	92	1.26	chu3 yu2	Cu3y2	0	623	sy2	seg3	3-Segment	Disyllable	CV V	b3	0.99766	1	3	3.095	3.037
exp2	p06	21	F	3	8	57	1.106	chu3 yu2	Cu3y2	0	623	sy2	seg3	3-Segment	Disyllable	CV V	b2	0.99758	1	3	3.095	3.037
exp2	p35	23	F	2	6	92	0.811	chu3 yu2	Cu3y2	0	623	sy2	seg3	3-Segment	Disyllable	CV V	b3	0.99802	1	3	3.095	3.037
exp2	p28	23	F	1	8	78	0.916	chu3 yu2	Cu3y2	0	623	sy2	seg3	3-Segment	Disyllable	CV V	b2	0.99771	1	3	3.095	3.037
exp2	p14	38	M	2	5	50	0.912	chu3 yu2	Cu3y2	0	623	sy2	seg3	3-Segment	Disyllable	CV V	b2	0.99808	1	3	3.095	3.037
exp2	p15	23	F	1	7	39	1.069	chu3 yu2	Cu3y2	0	623	sy2	seg3	3-Segment	Disyllable	CV V	b1	NA	1	3	3.095	3.037
exp2	p42	20	F	1	7	52	0.926	chu3 yu2	Cu3y2	0	623	sy2	seg3	3-Segment	Disyllable	CV V	b2	0.99804	1	3	3.095	3.037
exp1	p34	28	M	2	5	124	1.123	chuang1	CuaN1	0	789	sy1	seg4	4-Segment	Monosyllable	CGVN	NA	NA	2	11	3.601	2.747
exp1	p25	23	M	2	8	82	1.063	chuang1	CuaN1	0	789	sy1	seg4	4-Segment	Monosyllable	CGVN	NA	NA	2	11	3.601	2.747
exp1	p01	27	F	2	6	62	1.175	chuang1	CuaN1	0	789	sy1	seg4	4-Segment	Monosyllable	CGVN	NA	NA	2	11	3.601	2.747
exp1	p30	35	M	3	6	100	1.161	chuang1	CuaN1	0	789	sy1	seg4	4-Segment	Monosyllable	CGVN	NA	NA	2	11	3.601	2.747
exp1	p07	24	F	3	6	100	1.079	chuang1	CuaN1	0	789	sy1	seg4	4-Segment	Monosyllable	CGVN	NA	NA	2	11	3.601	2.747
exp1	p18	21	F	3	6	40	1.091	chuang1	CuaN1	0	789	sy1	seg4	4-Segment	Monosyllable	CGVN	NA	NA	2	11	3.601	2.747
exp1	p09	24	F	1	5	44	0.893	chuang1	CuaN1	0	789	sy1	seg4	4-Segment	Monosyllable	CGVN	NA	NA	2	11	3.601	2.747
exp1	p19	20	M	2	6	36	1.529	chuang1	CuaN1	0	789	sy1	seg4	4-Segment	Monosyllable	CGVN	NA	NA	2	11	3.601	2.747
exp1	p17	20	F	2	8	124	1.08	chuang1	CuaN1	0	789	sy1	seg4	4-Segment	Monosyllable	CGVN	NA	NA	2	11	3.601	2.747
exp1	p03	25	F	2	9	62	0.806	chuang1	CuaN1	0	789	sy1	seg4	4-Segment	Monosyllable	CGVN	NA	NA	2	11	3.601	2.747
exp1	p16	19	F	1	8	124	0.905	chuang1	CuaN1	0	789	sy1	seg4	4-Segment	Monosyllable	CGVN	NA	NA	2	11	3.601	2.747
exp1	p15	18	F	3	8	21	1.066	chuang1	CuaN1	0	789	sy1	seg4	4-Segment	Monosyllable	CGVN	NA	NA	2	11	3.601	2.747
exp1	p27	29	M	2	9	15	1.529	chuang1	CuaN1	0	789	sy1	seg4	4-Segment	Monosyllable	CGVN	NA	NA	2	11	3.601	2.747
exp1	p26	20	M	3	5	91	0.817	chuang1	CuaN1	0	789	sy1	seg4	4-Segment	Monosyllable	CGVN	NA	NA	2	11	3.601	2.747
exp1	p31	18	F	1	7	35	0.877	chuang1	CuaN1	0	789	sy1	seg4	4-Segment	Monosyllable	CGVN	NA	NA	2	11	3.601	2.747
exp1	p08	23	F	2	7	44	1.112	chuang1	CuaN1	0	789	sy1	seg4	4-Segment	Monosyllable	CGVN	NA	NA	2	11	3.601	2.747
exp1	p33	20	F	2	1	101	1.253	chuang1	CuaN1	0	789	sy1	seg4	4-Segment	Monosyllable	CGVN	NA	NA	2	11	3.601	2.747
exp1	p32	24	F	3	6	44	1.045	chuang1	CuaN1	0	789	sy1	seg4	4-Segment	Monosyllable	CGVN	NA	NA	2	11	3.601	2.747
exp1	p23	19	M	3	6	82	1.044	chuang1	CuaN1	0	789	sy1	seg4	4-Segment	Monosyllable	CGVN	NA	NA	2	11	3.601	2.747
exp1	p14	24	F	2	6	21	0.623	chuang1	CuaN1	0	789	sy1	seg4	4-Segment	Monosyllable	CGVN	NA	NA	2	11	3.601	2.747
exp1	p02	19	M	2	7	62	0.85	chuang1	CuaN1	0	789	sy1	seg4	4-Segment	Monosyllable	CGVN	NA	NA	2	11	3.601	2.747
exp1	p10	20	F	2	8	35	0.871	chuang1	CuaN1	0	789	sy1	seg4	4-Segment	Monosyllable	CGVN	NA	NA	2	11	3.601	2.747
exp1	p11	22	F	3	7	35	0.995	chuang1	CuaN1	0	789	sy1	seg4	4-Segment	Monosyllable	CGVN	NA	NA	2	11	3.601	2.747
exp1	p12	21	F	2	8	101	0.77	chuang1	CuaN1	0	789	sy1	seg4	4-Segment	Monosyllable	CGVN	NA	NA	2	11	3.601	2.747
exp1	p29	20	F	3	8	64	1.044	chuang1	CuaN1	0	789	sy1	seg4	4-Segment	Monosyllable	CGVN	NA	NA	2	11	3.601	2.747
exp1	p13	19	F	1	8	101	0.949	chuang1	CuaN1	0	789	sy1	seg4	4-Segment	Monosyllable	CGVN	NA	NA	2	11	3.601	2.747
exp1	p21	22	F	1	8	36	0.761	chuang1	CuaN1	0	789	sy1	seg4	4-Segment	Monosyllable	CGVN	NA	NA	2	11	3.601	2.747
exp1	p04	19	M	2	5	64	1.041	chuang1	CuaN1	0	789	sy1	seg4	4-Segment	Monosyllable	CGVN	NA	NA	2	11	3.601	2.747
exp1	p24	19	M	1	7	91	0.957	chuang1	CuaN1	0	789	sy1	seg4	4-Segment	Monosyllable	CGVN	NA	NA	2	11	3.601	2.747
exp1	p20	23	F	1	5	40	1.4	chuang1	CuaN1	0	789	sy1	seg4	4-Segment	Monosyllable	CGVN	NA	NA	2	11	3.601	2.747
exp1	p28	21	M	2	8	15	0.917	chuang1	CuaN1	0	789	sy1	seg4	4-Segment	Monosyllable	CGVN	NA	NA	2	11	3.601	2.747
exp1	p05	19	M	2	7	64	1.038	chuang1	CuaN1	0	789	sy1	seg4	4-Segment	Monosyllable	CGVN	NA	NA	2	11	3.601	2.747
exp1	p06	22	F	6	8	100	0.918	chuang1	CuaN1	0	789	sy1	seg4	4-Segment	Monosyllable	CGVN	NA	NA	2	11	3.601	2.747
exp3	p27	20	F	3	7	20	1.043	chuang1	CuaN1	chuo1	789	sy1	seg4	4-Segment	Monosyllable	CGVN	b1	NA	2	11	3.601	2.747
exp3	p01	25	F	3	7	33	0.905	chuang1	CuaN1	0	789	sy1	seg4	4-Segment	Monosyllable	CGVN	b1	NA	2	11	3.601	2.747
exp3	p02	24	F	1	7	29	1.03	chuang1	CuaN1	0	789	sy1	seg4	4-Segment	Monosyllable	CGVN	b1	NA	2	11	3.601	2.747
exp3	p03	34	M	2	7	84	1.076	chuang1	CuaN1	0	789	sy1	seg4	4-Segment	Monosyllable	CGVN	b3	NA	2	11	3.601	2.747
exp3	p04	28	F	2	7	49	1.099	chuang1	CuaN1	0	789	sy1	seg4	4-Segment	Monosyllable	CGVN	b2	NA	2	11	3.601	2.747
exp3	p05	28	F	3	6	29	1.039	chuang1	CuaN1	0	789	sy1	seg4	4-Segment	Monosyllable	CGVN	b1	NA	2	11	3.601	2.747
exp3	p06	27	M	2	6	128	1.108	chuang1	CuaN1	0	789	sy1	seg4	4-Segment	Monosyllable	CGVN	b4	NA	2	11	3.601	2.747
exp3	p07	26	M	1	6	20	1.073	chuang1	CuaN1	0	789	sy1	seg4	4-Segment	Monosyllable	CGVN	b1	NA	2	11	3.601	2.747
exp3	p08	24	F	1	6	135	0.844	chuang1	CuaN1	0	789	sy1	seg4	4-Segment	Monosyllable	CGVN	b4	NA	2	11	3.601	2.747
exp3	p09	25	F	1	7	125	0.744	chuang1	CuaN1	0	789	sy1	seg4	4-Segment	Monosyllable	CGVN	b4	NA	2	11	3.601	2.747
exp3	p10	21	F	2	7	43	1.038	chuang1	CuaN1	0	789	sy1	seg4	4-Segment	Monosyllable	CGVN	b2	NA	2	11	3.601	2.747
exp3	p11	33	M	1	5	141	1.013	chuang1	CuaN1	0	789	sy1	seg4	4-Segment	Monosyllable	CGVN	b4	NA	2	11	3.601	2.747
exp3	p12	28	F	2	6	137	0.645	chuang1	CuaN1	0	789	sy1	seg4	4-Segment	Monosyllable	CGVN	b4	NA	2	11	3.601	2.747
exp3	p13	28	M	1	6	48	0.814	chuang1	CuaN1	0	789	sy1	seg4	4-Segment	Monosyllable	CGVN	b2	NA	2	11	3.601	2.747
exp3	p14	28	F	2	7	13	1.002	chuang1	CuaN1	0	789	sy1	seg4	4-Segment	Monosyllable	CGVN	b1	NA	2	11	3.601	2.747
exp3	p15	24	F	3	7	65	1.017	chuang1	CuaN1	0	789	sy1	seg4	4-Segment	Monosyllable	CGVN	b2	NA	2	11	3.601	2.747
exp3	p16	29	F	2	6	56	0.982	chuang1	CuaN1	0	789	sy1	seg4	4-Segment	Monosyllable	CGVN	b2	NA	2	11	3.601	2.747
exp3	p17	27	M	1	6	56	0.882	chuang1	CuaN1	0	789	sy1	seg4	4-Segment	Monosyllable	CGVN	b2	NA	2	11	3.601	2.747
exp3	p18	25	F	3	7	63	1.053	chuang1	CuaN1	0	789	sy1	seg4	4-Segment	Monosyllable	CGVN	b2	NA	2	11	3.601	2.747
exp3	p19	27	F	2	7	53	1.172	chuang1	CuaN1	0	789	sy1	seg4	4-Segment	Monosyllable	CGVN	b2	NA	2	11	3.601	2.747
exp3	p20	26	F	2	7	43	1.073	chuang1	CuaN1	0	789	sy1	seg4	4-Segment	Monosyllable	CGVN	b2	NA	2	11	3.601	2.747
exp3	p21	26	F	2	7	33	1.187	chuang1	CuaN1	0	789	sy1	seg4	4-Segment	Monosyllable	CGVN	b1	NA	2	11	3.601	2.747
exp3	p22	26	M	1	7	137	1.134	chuang1	CuaN1	0	789	sy1	seg4	4-Segment	Monosyllable	CGVN	b4	NA	2	11	3.601	2.747
exp3	p23	23	F	3	7	120	1.151	chuang1	CuaN1	0	789	sy1	seg4	4-Segment	Monosyllable	CGVN	b4	NA	2	11	3.601	2.747
exp3	p24	23	F	1	7	121	1.226	chuang1	CuaN1	0	789	sy1	seg4	4-Segment	Monosyllable	CGVN	b4	NA	2	11	3.601	2.747
exp3	p25	19	M	2	9	29	1.075	chuang1	CuaN1	0	789	sy1	seg4	4-Segment	Monosyllable	CGVN	b1	NA	2	11	3.601	2.747
exp3	p26	19	F	2	7	92	1.381	chuang1	CuaN1	0	789	sy1	seg4	4-Segment	Monosyllable	CGVN	b3	NA	2	11	3.601	2.747
exp3	p29	30	F	2	7	135	1.455	chuang1	CuaN1	0	789	sy1	seg4	4-Segment	Monosyllable	CGVN	b4	NA	2	11	3.601	2.747
exp3	p30	23	F	2	7	53	1.22	chuang1	CuaN1	0	789	sy1	seg4	4-Segment	Monosyllable	CGVN	b2	NA	2	11	3.601	2.747
exp3	p31	38	F	1	8	115	0.992	chuang1	CuaN1	0	789	sy1	seg4	4-Segment	Monosyllable	CGVN	b4	NA	2	11	3.601	2.747
exp3	p32	19	F	1	7	69	1.052	chuang1	CuaN1	0	789	sy1	seg4	4-Segment	Monosyllable	CGVN	b2	NA	2	11	3.601	2.747
exp3	p33	19	F	2	8	137	1.037	chuang1	CuaN1	0	789	sy1	seg4	4-Segment	Monosyllable	CGVN	b4	NA	2	11	3.601	2.747
exp3	p34	27	F	2	7	84	0.935	chuang1	CuaN1	0	789	sy1	seg4	4-Segment	Monosyllable	CGVN	b3	NA	2	11	3.601	2.747
exp3	p35	32	F	3	8	49	0.963	chuang1	CuaN1	0	789	sy1	seg4	4-Segment	Monosyllable	CGVN	b2	NA	2	11	3.601	2.747
exp3	p36	24	M	3	7	65	0.933	chuang1	CuaN1	0	789	sy1	seg4	4-Segment	Monosyllable	CGVN	b2	NA	2	11	3.601	2.747
exp2	p09	19	M	2	7	74	0.888	chuang1	CuaN1	0	789	sy1	seg4	4-Segment	Monosyllable	CGVN	b2	0.99786	2	11	3.601	2.747
exp2	p18	19	F	2	6	54	1.539	chuang1	CuaN1	0	789	sy1	seg4	4-Segment	Monosyllable	CGVN	b2	NA	2	11	3.601	2.747
exp2	p30	23	F	2	8	31	1.011	chuang1	CuaN1	0	789	sy1	seg4	4-Segment	Monosyllable	CGVN	b1	NA	2	11	3.601	2.747
exp2	p23	23	F	3	8	45	0.961	chuang1	CuaN1	0	789	sy1	seg4	4-Segment	Monosyllable	CGVN	b1	NA	2	11	3.601	2.747
exp2	p05	23	F	3	7	72	0.98	chuang1	CuaN1	0	789	sy1	seg4	4-Segment	Monosyllable	CGVN	b2	0.99812	2	11	3.601	2.747
exp2	p26	24	F	1	7	111	1.014	chuang1	CuaN1	0	789	sy1	seg4	4-Segment	Monosyllable	CGVN	b3	0.99676	2	11	3.601	2.747
exp2	p21	21	F	3	5	45	1.132	chuang1	CuaN1	0	789	sy1	seg4	4-Segment	Monosyllable	CGVN	b1	NA	2	11	3.601	2.747
exp2	p35	23	F	2	6	31	1.154	chuang1	CuaN1	0	789	sy1	seg4	4-Segment	Monosyllable	CGVN	b1	NA	2	11	3.601	2.747
exp2	p17	23	M	3	5	54	1.233	chuang1	CuaN1	0	789	sy1	seg4	4-Segment	Monosyllable	CGVN	b2	0.99809	2	11	3.601	2.747
exp2	p34	26	M	2	6	134	1.104	chuang1	CuaN1	0	789	sy1	seg4	4-Segment	Monosyllable	CGVN	b4	0.99798	2	11	3.601	2.747
exp2	p36	31	M	2	8	31	1.281	chuang1	CuaN1	0	789	sy1	seg4	4-Segment	Monosyllable	CGVN	b1	NA	2	11	3.601	2.747
exp2	p07	26	F	3	7	74	1.143	chuang1	CuaN1	chuan1	789	sy1	seg4	4-Segment	Monosyllable	CGVN	b2	0.99812	2	11	3.601	2.747
exp2	p40	22	F	2	7	50	1.177	chuang1	CuaN1	0	789	sy1	seg4	4-Segment	Monosyllable	CGVN	b2	0.99806	2	11	3.601	2.747
exp2	p44	23	F	2	8	46	1.351	chuang1	CuaN1	0	789	sy1	seg4	4-Segment	Monosyllable	CGVN	b1	NA	2	11	3.601	2.747
exp2	p27	23	F	1	8	111	1.053	chuang1	CuaN1	0	789	sy1	seg4	4-Segment	Monosyllable	CGVN	b3	0.99694	2	11	3.601	2.747
exp2	p11	25	M	3	8	74	1.031	chuang1	CuaN1	0	789	sy1	seg4	4-Segment	Monosyllable	CGVN	b2	0.998	2	11	3.601	2.747
exp2	p03	28	F	1	7	72	1.192	chuang1	CuaN1	0	789	sy1	seg4	4-Segment	Monosyllable	CGVN	b2	0.99815	2	11	3.601	2.747
exp2	p42	20	F	1	7	46	1.115	chuang1	CuaN1	0	789	sy1	seg4	4-Segment	Monosyllable	CGVN	b1	NA	2	11	3.601	2.747
exp2	p41	26	F	1	6	46	1.462	chuang1	CuaN1	0	789	sy1	seg4	4-Segment	Monosyllable	CGVN	b1	NA	2	11	3.601	2.747
exp2	p38	24	F	1	6	50	1.154	chuang1	CuaN1	0	789	sy1	seg4	4-Segment	Monosyllable	CGVN	b2	0.99795	2	11	3.601	2.747
exp2	p20	23	M	2	7	110	1.167	chuang1	CuaN1	0	789	sy1	seg4	4-Segment	Monosyllable	CGVN	b3	0.99779	2	11	3.601	2.747
exp2	p43	26	M	2	7	46	1.387	chuang1	CuaN1	0	789	sy1	seg4	4-Segment	Monosyllable	CGVN	b1	NA	2	11	3.601	2.747
exp2	p10	28	M	2	7	110	1.128	chuang1	CuaN1	0	789	sy1	seg4	4-Segment	Monosyllable	CGVN	b3	0.99685	2	11	3.601	2.747
exp2	p32	26	F	2	5	134	0.846	chuang1	CuaN1	0	789	sy1	seg4	4-Segment	Monosyllable	CGVN	b4	0.99703	2	11	3.601	2.747
exp2	p22	22	F	2	7	45	1.137	chuang1	CuaN1	0	789	sy1	seg4	4-Segment	Monosyllable	CGVN	b1	NA	2	11	3.601	2.747
exp2	p14	38	M	2	5	110	1.07	chuang1	CuaN1	0	789	sy1	seg4	4-Segment	Monosyllable	CGVN	b3	0.99738	2	11	3.601	2.747
exp2	p06	21	F	3	8	74	1.339	chuang1	CuaN1	0	789	sy1	seg4	4-Segment	Monosyllable	CGVN	b2	0.99758	2	11	3.601	2.747
exp2	p25	23	M	2	6	111	1.064	chuang1	CuaN1	0	789	sy1	seg4	4-Segment	Monosyllable	CGVN	b3	0.99668	2	11	3.601	2.747
exp2	p46	29	F	2	7	92	1.732	chuang1	CuaN1	0	789	sy1	seg4	4-Segment	Monosyllable	CGVN	b3	0.99729	2	11	3.601	2.747
exp2	p31	38	F	2	6	134	0.876	chuang1	CuaN1	0	789	sy1	seg4	4-Segment	Monosyllable	CGVN	b4	0.997	2	11	3.601	2.747
exp2	p02	26	M	3	8	72	1.049	chuang1	CuaN1	0	789	sy1	seg4	4-Segment	Monosyllable	CGVN	b2	0.99804	2	11	3.601	2.747
exp2	p47	23	F	1	7	92	1.027	chuang1	CuaN1	0	789	sy1	seg4	4-Segment	Monosyllable	CGVN	b3	0.99701	2	11	3.601	2.747
exp2	p24	21	M	2	6	45	1.25	chuang1	CuaN1	0	789	sy1	seg4	4-Segment	Monosyllable	CGVN	b1	NA	2	11	3.601	2.747
exp2	p15	23	F	1	7	54	1.11	chuang1	CuaN1	0	789	sy1	seg4	4-Segment	Monosyllable	CGVN	b2	0.99783	2	11	3.601	2.747
exp2	p08	19	M	3	7	74	0.936	chuang1	CuaN1	0	789	sy1	seg4	4-Segment	Monosyllable	CGVN	b2	0.99817	2	11	3.601	2.747
exp2	p39	22	M	2	8	50	1.098	chuang1	CuaN1	0	789	sy1	seg4	4-Segment	Monosyllable	CGVN	b2	0.99814	2	11	3.601	2.747
exp2	p19	26	F	3	8	54	0.985	chuang1	CuaN1	0	789	sy1	seg4	4-Segment	Monosyllable	CGVN	b2	0.99774	2	11	3.601	2.747
exp2	p45	23	F	2	7	92	0.921	chuang1	CuaN1	0	789	sy1	seg4	4-Segment	Monosyllable	CGVN	b3	0.99718	2	11	3.601	2.747
exp2	p12	26	M	2	6	110	1.003	chuang1	CuaN1	0	789	sy1	seg4	4-Segment	Monosyllable	CGVN	b3	0.99759	2	11	3.601	2.747
exp2	p01	19	M	2	7	72	1.012	chuang1	CuaN1	0	789	sy1	seg4	4-Segment	Monosyllable	CGVN	b2	0.99789	2	11	3.601	2.747
exp2	p33	26	F	1	6	134	1.001	chuang1	CuaN1	0	789	sy1	seg4	4-Segment	Monosyllable	CGVN	b4	0.9967	2	11	3.601	2.747
exp2	p28	23	F	1	8	111	1.118	chuang1	CuaN1	0	789	sy1	seg4	4-Segment	Monosyllable	CGVN	b3	0.99663	2	11	3.601	2.747
exp2	p04	24	F	1	5	72	1.041	chuang1	CuaN1	0	789	sy1	seg4	4-Segment	Monosyllable	CGVN	b2	0.99793	2	11	3.601	2.747
exp2	p16	20	F	3	7	54	1.231	chuang1	CuaN1	0	789	sy1	seg4	4-Segment	Monosyllable	CGVN	b2	0.99775	2	11	3.601	2.747
exp2	p13	28	M	2	6	110	1.003	chuang1	CuaN1	0	789	sy1	seg4	4-Segment	Monosyllable	CGVN	b3	0.99767	2	11	3.601	2.747
exp2	p29	20	M	4	6	31	0.941	chuang1	CuaN1	0	789	sy1	seg4	4-Segment	Monosyllable	CGVN	b1	NA	2	11	3.601	2.747
exp2	p37	20	F	3	8	50	1.12	chuang1	CuaN1	0	789	sy1	seg4	4-Segment	Monosyllable	CGVN	b2	0.99788	2	11	3.601	2.747
exp1	p24	19	M	1	7	131	0.892	chuan3	Cuan3	0	798	sy1	seg4	4-Segment	Monosyllable	CGVN	NA	NA	2	16	3.846	2.643
exp1	p20	23	F	1	5	89	1.045	chuan3	Cuan3	0	798	sy1	seg4	4-Segment	Monosyllable	CGVN	NA	NA	2	16	3.846	2.643
exp1	p32	24	F	3	6	137	0.986	chuan3	Cuan3	0	798	sy1	seg4	4-Segment	Monosyllable	CGVN	NA	NA	2	16	3.846	2.643
exp1	p09	24	F	1	5	137	0.92	chuan3	Cuan3	0	798	sy1	seg4	4-Segment	Monosyllable	CGVN	NA	NA	2	16	3.846	2.643
exp1	p05	19	M	2	7	71	0.923	chuan3	Cuan3	0	798	sy1	seg4	4-Segment	Monosyllable	CGVN	NA	NA	2	16	3.846	2.643
exp1	p01	27	F	2	6	51	1.064	chuan3	Cuan3	0	798	sy1	seg4	4-Segment	Monosyllable	CGVN	NA	NA	2	16	3.846	2.643
exp1	p06	22	F	6	8	67	0.873	chuan3	Cuan3	0	798	sy1	seg4	4-Segment	Monosyllable	CGVN	NA	NA	2	16	3.846	2.643
exp1	p15	18	F	3	8	14	1.159	chuan3	Cuan3	0	798	sy1	seg4	4-Segment	Monosyllable	CGVN	NA	NA	2	16	3.846	2.643
exp1	p23	19	M	3	6	75	1.041	chuan3	Cuan3	0	798	sy1	seg4	4-Segment	Monosyllable	CGVN	NA	NA	2	16	3.846	2.643
exp1	p18	21	F	3	6	89	1.026	chuan3	Cuan3	0	798	sy1	seg4	4-Segment	Monosyllable	CGVN	NA	NA	2	16	3.846	2.643
exp1	p11	22	F	3	7	46	1.051	chuan3	Cuan3	0	798	sy1	seg4	4-Segment	Monosyllable	CGVN	NA	NA	2	16	3.846	2.643
exp1	p28	21	M	2	8	46	0.972	chuan3	Cuan3	0	798	sy1	seg4	4-Segment	Monosyllable	CGVN	NA	NA	2	16	3.846	2.643
exp1	p27	29	M	2	9	46	1.199	chuan3	Cuan3	0	798	sy1	seg4	4-Segment	Monosyllable	CGVN	NA	NA	2	16	3.846	2.643
exp1	p07	24	F	3	6	67	0.828	chuan3	Cuan3	0	798	sy1	seg4	4-Segment	Monosyllable	CGVN	NA	NA	2	16	3.846	2.643
exp1	p29	20	F	3	8	71	0.965	chuan3	Cuan3	0	798	sy1	seg4	4-Segment	Monosyllable	CGVN	NA	NA	2	16	3.846	2.643
exp1	p21	22	F	1	8	65	0.871	chuan3	Cuan3	0	798	sy1	seg4	4-Segment	Monosyllable	CGVN	NA	NA	2	16	3.846	2.643
exp1	p03	25	F	2	9	51	0.859	chuan3	Cuan3	0	798	sy1	seg4	4-Segment	Monosyllable	CGVN	NA	NA	2	16	3.846	2.643
exp1	p16	19	F	1	8	135	0.939	chuan3	Cuan3	0	798	sy1	seg4	4-Segment	Monosyllable	CGVN	NA	NA	2	16	3.846	2.643
exp1	p10	20	F	2	8	46	0.866	chuan3	Cuan3	0	798	sy1	seg4	4-Segment	Monosyllable	CGVN	NA	NA	2	16	3.846	2.643
exp1	p04	19	M	2	5	71	0.938	chuan3	Cuan3	0	798	sy1	seg4	4-Segment	Monosyllable	CGVN	NA	NA	2	16	3.846	2.643
exp1	p30	35	M	3	6	67	1.015	chuan3	Cuan3	0	798	sy1	seg4	4-Segment	Monosyllable	CGVN	NA	NA	2	16	3.846	2.643
exp1	p13	19	F	1	8	113	0.953	chuan3	Cuan3	0	798	sy1	seg4	4-Segment	Monosyllable	CGVN	NA	NA	2	16	3.846	2.643
exp1	p31	18	F	1	7	46	0.674	chuan3	Cuan3	0	798	sy1	seg4	4-Segment	Monosyllable	CGVN	NA	NA	2	16	3.846	2.643
exp1	p17	20	F	2	8	135	1.083	chuan3	Cuan3	0	798	sy1	seg4	4-Segment	Monosyllable	CGVN	NA	NA	2	16	3.846	2.643
exp1	p08	23	F	2	7	137	0.936	chuan3	Cuan3	0	798	sy1	seg4	4-Segment	Monosyllable	CGVN	NA	NA	2	16	3.846	2.643
exp1	p02	19	M	2	7	51	0.979	chuan3	Cuan3	0	798	sy1	seg4	4-Segment	Monosyllable	CGVN	NA	NA	2	16	3.846	2.643
exp1	p34	28	M	2	5	135	1.339	chuan3	Cuan3	0	798	sy1	seg4	4-Segment	Monosyllable	CGVN	NA	NA	2	16	3.846	2.643
exp1	p14	24	F	2	6	14	0.538	chuan3	Cuan3	0	798	sy1	seg4	4-Segment	Monosyllable	CGVN	NA	NA	2	16	3.846	2.643
exp1	p12	21	F	2	8	113	0.789	chuan3	Cuan3	0	798	sy1	seg4	4-Segment	Monosyllable	CGVN	NA	NA	2	16	3.846	2.643
exp1	p26	20	M	3	5	131	0.765	chuan3	Cuan3	0	798	sy1	seg4	4-Segment	Monosyllable	CGVN	NA	NA	2	16	3.846	2.643
exp1	p33	20	F	2	1	113	1.106	chuan3	Cuan3	0	798	sy1	seg4	4-Segment	Monosyllable	CGVN	NA	NA	2	16	3.846	2.643
exp1	p19	20	M	2	6	65	1.108	chuan3	Cuan3	0	798	sy1	seg4	4-Segment	Monosyllable	CGVN	NA	NA	2	16	3.846	2.643
exp1	p25	23	M	2	8	75	0.955	chuan3	Cuan3	0	798	sy1	seg4	4-Segment	Monosyllable	CGVN	NA	NA	2	16	3.846	2.643
exp3	p24	23	F	1	7	119	1.049	chuan3	Cuan3	chuan1	798	sy1	seg4	4-Segment	Monosyllable	CGVN	b4	NA	2	16	3.846	2.643
exp3	p01	25	F	3	7	21	0.948	chuan3	Cuan3	0	798	sy1	seg4	4-Segment	Monosyllable	CGVN	b1	NA	2	16	3.846	2.643
exp3	p02	24	F	1	7	10	0.87	chuan3	Cuan3	0	798	sy1	seg4	4-Segment	Monosyllable	CGVN	b1	NA	2	16	3.846	2.643
exp3	p03	34	M	2	7	78	1.078	chuan3	Cuan3	0	798	sy1	seg4	4-Segment	Monosyllable	CGVN	b3	NA	2	16	3.846	2.643
exp3	p04	28	F	2	7	47	1.066	chuan3	Cuan3	0	798	sy1	seg4	4-Segment	Monosyllable	CGVN	b2	NA	2	16	3.846	2.643
exp3	p05	28	F	3	6	26	1.11	chuan3	Cuan3	0	798	sy1	seg4	4-Segment	Monosyllable	CGVN	b1	NA	2	16	3.846	2.643
exp3	p06	27	M	2	6	122	1.064	chuan3	Cuan3	0	798	sy1	seg4	4-Segment	Monosyllable	CGVN	b4	NA	2	16	3.846	2.643
exp3	p07	26	M	1	6	32	1.284	chuan3	Cuan3	0	798	sy1	seg4	4-Segment	Monosyllable	CGVN	b1	NA	2	16	3.846	2.643
exp3	p08	24	F	1	6	131	0.916	chuan3	Cuan3	0	798	sy1	seg4	4-Segment	Monosyllable	CGVN	b4	NA	2	16	3.846	2.643
exp3	p09	25	F	1	7	142	0.83	chuan3	Cuan3	0	798	sy1	seg4	4-Segment	Monosyllable	CGVN	b4	NA	2	16	3.846	2.643
exp3	p10	21	F	2	7	67	1.042	chuan3	Cuan3	0	798	sy1	seg4	4-Segment	Monosyllable	CGVN	b2	NA	2	16	3.846	2.643
exp3	p11	33	M	1	5	129	1.029	chuan3	Cuan3	0	798	sy1	seg4	4-Segment	Monosyllable	CGVN	b4	NA	2	16	3.846	2.643
exp3	p12	28	F	2	6	118	0.659	chuan3	Cuan3	0	798	sy1	seg4	4-Segment	Monosyllable	CGVN	b4	NA	2	16	3.846	2.643
exp3	p13	28	M	1	6	42	0.808	chuan3	Cuan3	0	798	sy1	seg4	4-Segment	Monosyllable	CGVN	b2	NA	2	16	3.846	2.643
exp3	p14	28	F	2	7	11	1.072	chuan3	Cuan3	0	798	sy1	seg4	4-Segment	Monosyllable	CGVN	b1	NA	2	16	3.846	2.643
exp3	p15	24	F	3	7	62	0.916	chuan3	Cuan3	0	798	sy1	seg4	4-Segment	Monosyllable	CGVN	b2	NA	2	16	3.846	2.643
exp3	p16	29	F	2	6	50	0.902	chuan3	Cuan3	0	798	sy1	seg4	4-Segment	Monosyllable	CGVN	b2	NA	2	16	3.846	2.643
exp3	p17	27	M	1	6	68	0.904	chuan3	Cuan3	0	798	sy1	seg4	4-Segment	Monosyllable	CGVN	b2	NA	2	16	3.846	2.643
exp3	p18	25	F	3	7	59	0.909	chuan3	Cuan3	0	798	sy1	seg4	4-Segment	Monosyllable	CGVN	b2	NA	2	16	3.846	2.643
exp3	p19	27	F	2	7	70	1.173	chuan3	Cuan3	0	798	sy1	seg4	4-Segment	Monosyllable	CGVN	b2	NA	2	16	3.846	2.643
exp3	p20	26	F	2	7	67	1.032	chuan3	Cuan3	0	798	sy1	seg4	4-Segment	Monosyllable	CGVN	b2	NA	2	16	3.846	2.643
exp3	p21	26	F	2	7	21	1.407	chuan3	Cuan3	0	798	sy1	seg4	4-Segment	Monosyllable	CGVN	b1	NA	2	16	3.846	2.643
exp3	p22	26	M	1	7	118	1.034	chuan3	Cuan3	0	798	sy1	seg4	4-Segment	Monosyllable	CGVN	b4	NA	2	16	3.846	2.643
exp3	p23	23	F	3	7	114	0.923	chuan3	Cuan3	0	798	sy1	seg4	4-Segment	Monosyllable	CGVN	b4	NA	2	16	3.846	2.643
exp3	p25	19	M	2	9	26	0.969	chuan3	Cuan3	0	798	sy1	seg4	4-Segment	Monosyllable	CGVN	b1	NA	2	16	3.846	2.643
exp3	p26	19	F	2	7	86	1.256	chuan3	Cuan3	0	798	sy1	seg4	4-Segment	Monosyllable	CGVN	b3	NA	2	16	3.846	2.643
exp3	p27	20	F	3	7	32	1.023	chuan3	Cuan3	0	798	sy1	seg4	4-Segment	Monosyllable	CGVN	b1	NA	2	16	3.846	2.643
exp3	p29	30	F	2	7	131	1.222	chuan3	Cuan3	0	798	sy1	seg4	4-Segment	Monosyllable	CGVN	b4	NA	2	16	3.846	2.643
exp3	p30	23	F	2	7	70	1.027	chuan3	Cuan3	0	798	sy1	seg4	4-Segment	Monosyllable	CGVN	b2	NA	2	16	3.846	2.643
exp3	p31	38	F	1	8	139	0.862	chuan3	Cuan3	0	798	sy1	seg4	4-Segment	Monosyllable	CGVN	b4	NA	2	16	3.846	2.643
exp3	p32	19	F	1	7	57	0.977	chuan3	Cuan3	0	798	sy1	seg4	4-Segment	Monosyllable	CGVN	b2	NA	2	16	3.846	2.643
exp3	p33	19	F	2	8	118	1.219	chuan3	Cuan3	0	798	sy1	seg4	4-Segment	Monosyllable	CGVN	b4	NA	2	16	3.846	2.643
exp3	p34	27	F	2	7	78	0.9	chuan3	Cuan3	0	798	sy1	seg4	4-Segment	Monosyllable	CGVN	b3	NA	2	16	3.846	2.643
exp3	p35	32	F	3	8	47	0.921	chuan3	Cuan3	0	798	sy1	seg4	4-Segment	Monosyllable	CGVN	b2	NA	2	16	3.846	2.643
exp3	p36	24	M	3	7	62	0.953	chuan3	Cuan3	0	798	sy1	seg4	4-Segment	Monosyllable	CGVN	b2	NA	2	16	3.846	2.643
exp2	p08	19	M	3	7	81	0.953	chuan3	Cuan3	0	798	sy1	seg4	4-Segment	Monosyllable	CGVN	b2	0.99817	2	16	3.846	2.643
exp2	p16	20	F	3	7	147	1.171	chuan3	Cuan3	0	798	sy1	seg4	4-Segment	Monosyllable	CGVN	b4	0.99748	2	16	3.846	2.643
exp2	p23	23	F	3	8	56	0.814	chuan3	Cuan3	0	798	sy1	seg4	4-Segment	Monosyllable	CGVN	b2	0.99739	2	16	3.846	2.643
exp2	p22	22	F	2	7	56	1.068	chuan3	Cuan3	0	798	sy1	seg4	4-Segment	Monosyllable	CGVN	b2	0.99732	2	16	3.846	2.643
exp2	p37	20	F	3	8	99	1.059	chuan3	Cuan3	0	798	sy1	seg4	4-Segment	Monosyllable	CGVN	b3	0.99726	2	16	3.846	2.643
exp2	p15	23	F	1	7	147	1.087	chuan3	Cuan3	0	798	sy1	seg4	4-Segment	Monosyllable	CGVN	b4	0.99752	2	16	3.846	2.643
exp2	p09	19	M	2	7	81	0.928	chuan3	Cuan3	0	798	sy1	seg4	4-Segment	Monosyllable	CGVN	b2	0.99786	2	16	3.846	2.643
exp2	p39	22	M	2	8	99	1.162	chuan3	Cuan3	0	798	sy1	seg4	4-Segment	Monosyllable	CGVN	b3	0.99792	2	16	3.846	2.643
exp2	p44	23	F	2	8	75	1.242	chuan3	Cuan3	0	798	sy1	seg4	4-Segment	Monosyllable	CGVN	b2	0.99746	2	16	3.846	2.643
exp2	p11	25	M	3	8	81	1.043	chuan3	Cuan3	0	798	sy1	seg4	4-Segment	Monosyllable	CGVN	b2	0.998	2	16	3.846	2.643
exp2	p21	21	F	3	5	56	1.046	chuan3	Cuan3	0	798	sy1	seg4	4-Segment	Monosyllable	CGVN	b2	0.99765	2	16	3.846	2.643
exp2	p01	19	M	2	7	61	1.028	chuan3	Cuan3	0	798	sy1	seg4	4-Segment	Monosyllable	CGVN	b2	0.99789	2	16	3.846	2.643
exp2	p03	28	F	1	7	61	1.302	chuan3	Cuan3	0	798	sy1	seg4	4-Segment	Monosyllable	CGVN	b2	0.99815	2	16	3.846	2.643
exp2	p12	26	M	2	6	77	1.015	chuan3	Cuan3	0	798	sy1	seg4	4-Segment	Monosyllable	CGVN	b2	0.99796	2	16	3.846	2.643
exp2	p26	24	F	1	7	123	0.978	chuan3	Cuan3	0	798	sy1	seg4	4-Segment	Monosyllable	CGVN	b4	0.99708	2	16	3.846	2.643
exp2	p40	22	F	2	7	99	1.445	chuan3	Cuan3	0	798	sy1	seg4	4-Segment	Monosyllable	CGVN	b3	0.99698	2	16	3.846	2.643
exp2	p07	26	F	3	7	81	1.119	chuan3	Cuan3	0	798	sy1	seg4	4-Segment	Monosyllable	CGVN	b2	0.99812	2	16	3.846	2.643
exp2	p43	26	M	2	7	75	1.062	chuan3	Cuan3	0	798	sy1	seg4	4-Segment	Monosyllable	CGVN	b2	0.99754	2	16	3.846	2.643
exp2	p27	23	F	1	8	123	1.034	chuan3	Cuan3	0	798	sy1	seg4	4-Segment	Monosyllable	CGVN	b4	0.9976	2	16	3.846	2.643
exp2	p29	20	M	4	6	24	0.999	chuan3	Cuan3	0	798	sy1	seg4	4-Segment	Monosyllable	CGVN	b1	NA	2	16	3.846	2.643
exp2	p28	23	F	1	8	123	1.122	chuan3	Cuan3	0	798	sy1	seg4	4-Segment	Monosyllable	CGVN	b4	0.99654	2	16	3.846	2.643
exp2	p31	38	F	2	6	145	0.922	chuan3	Cuan3	0	798	sy1	seg4	4-Segment	Monosyllable	CGVN	b4	0.997	2	16	3.846	2.643
exp2	p38	24	F	1	6	99	0.98	chuan3	Cuan3	0	798	sy1	seg4	4-Segment	Monosyllable	CGVN	b3	0.99712	2	16	3.846	2.643
exp2	p04	24	F	1	5	61	1.019	chuan3	Cuan3	0	798	sy1	seg4	4-Segment	Monosyllable	CGVN	b2	0.99793	2	16	3.846	2.643
exp2	p30	23	F	2	8	24	0.975	chuan3	Cuan3	0	798	sy1	seg4	4-Segment	Monosyllable	CGVN	b1	NA	2	16	3.846	2.643
exp2	p05	23	F	3	7	61	1.054	chuan3	Cuan3	0	798	sy1	seg4	4-Segment	Monosyllable	CGVN	b2	0.99812	2	16	3.846	2.643
exp2	p10	28	M	2	7	77	1.041	chuan3	Cuan3	0	798	sy1	seg4	4-Segment	Monosyllable	CGVN	b2	0.99781	2	16	3.846	2.643
exp2	p13	28	M	2	6	77	1.055	chuan3	Cuan3	0	798	sy1	seg4	4-Segment	Monosyllable	CGVN	b2	0.99816	2	16	3.846	2.643
exp2	p24	21	M	2	6	56	1.149	chuan3	Cuan3	0	798	sy1	seg4	4-Segment	Monosyllable	CGVN	b2	0.99777	2	16	3.846	2.643
exp2	p25	23	M	2	6	123	0.98	chuan3	Cuan3	0	798	sy1	seg4	4-Segment	Monosyllable	CGVN	b4	0.99757	2	16	3.846	2.643
exp2	p17	23	M	3	5	147	1.306	chuan3	Cuan3	0	798	sy1	seg4	4-Segment	Monosyllable	CGVN	b4	0.99743	2	16	3.846	2.643
exp2	p33	26	F	1	6	145	1.078	chuan3	Cuan3	0	798	sy1	seg4	4-Segment	Monosyllable	CGVN	b4	0.9967	2	16	3.846	2.643
exp2	p42	20	F	1	7	75	0.979	chuan3	Cuan3	0	798	sy1	seg4	4-Segment	Monosyllable	CGVN	b2	0.99804	2	16	3.846	2.643
exp2	p14	38	M	2	5	77	1.141	chuan3	Cuan3	0	798	sy1	seg4	4-Segment	Monosyllable	CGVN	b2	0.99808	2	16	3.846	2.643
exp2	p20	23	M	2	7	77	1.082	chuan3	Cuan3	0	798	sy1	seg4	4-Segment	Monosyllable	CGVN	b2	0.99807	2	16	3.846	2.643
exp2	p02	26	M	3	8	61	1.103	chuan3	Cuan3	0	798	sy1	seg4	4-Segment	Monosyllable	CGVN	b2	0.99804	2	16	3.846	2.643
exp2	p46	29	F	2	7	85	1.13	chuan3	Cuan3	0	798	sy1	seg4	4-Segment	Monosyllable	CGVN	b3	0.99729	2	16	3.846	2.643
exp2	p19	26	F	3	8	147	0.968	chuan3	Cuan3	0	798	sy1	seg4	4-Segment	Monosyllable	CGVN	b4	0.99735	2	16	3.846	2.643
exp2	p32	26	F	2	5	145	0.926	chuan3	Cuan3	0	798	sy1	seg4	4-Segment	Monosyllable	CGVN	b4	0.99703	2	16	3.846	2.643
exp2	p36	31	M	2	8	24	1.181	chuan3	Cuan3	0	798	sy1	seg4	4-Segment	Monosyllable	CGVN	b1	NA	2	16	3.846	2.643
exp2	p34	26	M	2	6	145	0.974	chuan3	Cuan3	0	798	sy1	seg4	4-Segment	Monosyllable	CGVN	b4	0.99798	2	16	3.846	2.643
exp2	p06	21	F	3	8	81	1.223	chuan3	Cuan3	0	798	sy1	seg4	4-Segment	Monosyllable	CGVN	b2	0.99758	2	16	3.846	2.643
exp2	p45	23	F	2	7	85	0.876	chuan3	Cuan3	missing	798	sy1	seg4	4-Segment	Monosyllable	CGVN	b3	0.99718	2	16	3.846	2.643
exp2	p41	26	F	1	6	75	1.39	chuan3	Cuan3	0	798	sy1	seg4	4-Segment	Monosyllable	CGVN	b2	0.99794	2	16	3.846	2.643
exp2	p18	19	F	2	6	147	1.631	chuan3	Cuan3	0	798	sy1	seg4	4-Segment	Monosyllable	CGVN	b4	NA	2	16	3.846	2.643
exp2	p47	23	F	1	7	85	1.128	chuan3	Cuan3	0	798	sy1	seg4	4-Segment	Monosyllable	CGVN	b3	0.99701	2	16	3.846	2.643
exp2	p35	23	F	2	6	24	1.043	chuan3	Cuan3	0	798	sy1	seg4	4-Segment	Monosyllable	CGVN	b1	NA	2	16	3.846	2.643
exp1	p20	23	F	1	5	44	1.49	chuang3	CuaN3	0	796	sy1	seg4	4-Segment	Monosyllable	CGVN	NA	NA	1	10	4.033	2.736
exp1	p33	20	F	2	1	74	1.158	chuang3	CuaN3	0	796	sy1	seg4	4-Segment	Monosyllable	CGVN	NA	NA	1	10	4.033	2.736
exp1	p14	24	F	2	6	139	0.677	chuang3	CuaN3	0	796	sy1	seg4	4-Segment	Monosyllable	CGVN	NA	NA	1	10	4.033	2.736
exp1	p04	19	M	2	5	124	0.953	chuang3	CuaN3	0	796	sy1	seg4	4-Segment	Monosyllable	CGVN	NA	NA	1	10	4.033	2.736
exp1	p02	19	M	2	7	3	0.917	chuang3	CuaN3	0	796	sy1	seg4	4-Segment	Monosyllable	CGVN	NA	NA	1	10	4.033	2.736
exp1	p29	20	F	3	8	124	0.867	chuang3	CuaN3	0	796	sy1	seg4	4-Segment	Monosyllable	CGVN	NA	NA	1	10	4.033	2.736
exp1	p27	29	M	2	9	41	1.078	chuang3	CuaN3	0	796	sy1	seg4	4-Segment	Monosyllable	CGVN	NA	NA	1	10	4.033	2.736
exp1	p15	18	F	3	8	139	1.16	chuang3	CuaN3	0	796	sy1	seg4	4-Segment	Monosyllable	CGVN	NA	NA	1	10	4.033	2.736
exp1	p09	24	F	1	5	85	0.808	chuang3	CuaN3	0	796	sy1	seg4	4-Segment	Monosyllable	CGVN	NA	NA	1	10	4.033	2.736
exp1	p18	21	F	3	6	44	1.139	chuang3	CuaN3	0	796	sy1	seg4	4-Segment	Monosyllable	CGVN	NA	NA	1	10	4.033	2.736
exp1	p01	27	F	2	6	3	1.172	chuang3	CuaN3	0	796	sy1	seg4	4-Segment	Monosyllable	CGVN	NA	NA	1	10	4.033	2.736
exp1	p32	24	F	3	6	85	1.019	chuang3	CuaN3	0	796	sy1	seg4	4-Segment	Monosyllable	CGVN	NA	NA	1	10	4.033	2.736
exp1	p19	20	M	2	6	23	0.932	chuang3	CuaN3	0	796	sy1	seg4	4-Segment	Monosyllable	CGVN	NA	NA	1	10	4.033	2.736
exp1	p26	20	M	3	5	1	0.833	chuang3	CuaN3	0	796	sy1	seg4	4-Segment	Monosyllable	CGVN	NA	NA	1	10	4.033	2.736
exp1	p03	25	F	2	9	3	0.913	chuang3	CuaN3	0	796	sy1	seg4	4-Segment	Monosyllable	CGVN	NA	NA	1	10	4.033	2.736
exp1	p12	21	F	2	8	74	0.843	chuang3	CuaN3	0	796	sy1	seg4	4-Segment	Monosyllable	CGVN	NA	NA	1	10	4.033	2.736
exp1	p17	20	F	2	8	57	1.051	chuang3	CuaN3	0	796	sy1	seg4	4-Segment	Monosyllable	CGVN	NA	NA	1	10	4.033	2.736
exp1	p21	22	F	1	8	23	0.676	chuang3	CuaN3	0	796	sy1	seg4	4-Segment	Monosyllable	CGVN	NA	NA	1	10	4.033	2.736
exp1	p10	20	F	2	8	80	0.93	chuang3	CuaN3	0	796	sy1	seg4	4-Segment	Monosyllable	CGVN	NA	NA	1	10	4.033	2.736
exp1	p06	22	F	6	8	72	0.957	chuang3	CuaN3	0	796	sy1	seg4	4-Segment	Monosyllable	CGVN	NA	NA	1	10	4.033	2.736
